Ank_ACCX,Ank_ACCY,Ank_ACCZ,Ank_VELX,Ank_VELY,Ank_VELZ,Ank_LUMX,RightPocketACCX,RightPocketACCY,RightPocketACCZ,RightPocketVELX,RightPocketVELY,RightPocketVELZ,RightPocketLUMX,BeltACCX,BeltACCY,BeltACCZ,BeltAngularVELX,BeltAngularVELY,BeltAngularVELZ,BeltLUMX,NeckACCX,NeckACCY,NeckACCZ,NeckVELX,NeckVELY,NeckVELZ,NeckLUMX,WristACCX,WristACCY,WristACCZ,WristVELX,WristVELY,WristVELZ,WristLUMX,BrainSensor,Activity,LABEL
-1.005,0.229,-0.083,-0.671,0.488,-2.683,0,-0.981,0.26,0.098,1.768,-1.89,0.732,0,0.146,0.895,0.367,-1.463,-3.841,-2.622,392.633,-0.672,0.072,-0.815,-3.293,-7.805,9.207,1231.336,-1.24,-0.557,0.227,-75.854,44.024,315.915,2108.154,45,1,0
-1.005,0.228,-0.082,-3.415,-0.549,0.122,0,-0.981,0.26,0.098,3.354,-2.5,-0.061,0,0.146,0.895,0.367,1.037,-4.024,-1.768,392.633,-0.672,0.072,-0.815,-9.756,-8.049,5.122,1231.336,-1.24,-0.557,0.227,-28.78,55.549,344.146,2108.154,1,1,0
-1.005,0.231,-0.079,-2.622,-1.402,-0.549,0,-0.975,0.282,0.091,3.72,-2.5,-0.793,0,0.178,0.896,0.373,0.366,-2.5,-0.488,392.633,-0.705,0.084,-0.779,-17.866,-18.354,4.329,1231.336,-1.884,-0.687,0.251,27.256,87.134,372.012,2108.154,325,1,0
-1.005,0.231,-0.079,-2.561,-2.195,-1.22,0,-0.973,0.301,0.103,-1.951,-1.159,-1.28,0,0.16,0.895,0.372,0.854,1.951,1.585,392.633,-0.727,0.095,-0.758,-18.537,-10.061,0.366,1231.336,-1.884,-0.687,0.251,2.866,117.683,356.463,2108.154,396,1,0
-1.008,0.229,-0.072,-3.537,-2.073,-0.305,0,-0.973,0.301,0.103,-5.366,-1.28,-0.732,0,0.16,0.895,0.372,2.012,4.634,3.354,392.633,-0.727,0.095,-0.758,4.878,2.866,-3.232,1231.336,-1.597,-0.646,0.112,10,30.671,126.768,2108.154,-436,1,0
-1.005,0.223,-0.066,-10.488,-2.195,0.61,0,-0.983,0.266,0.117,-5,0.183,-1.89,0,0.082,0.902,0.359,6.341,0.854,2.988,392.633,-0.707,0.042,-0.778,11.463,-12.622,6.585,1231.336,-1.096,-0.204,0.179,21.524,40.427,26.89,2108.154,-290,1,0
-1.005,0.223,-0.066,-8.841,-2.561,0.793,0,-0.999,0.2,0.119,-2.683,2.5,-2.927,0,0.063,0.913,0.366,4.817,-3.963,0.427,392.633,-0.637,0.132,-0.809,-4.939,0.488,1.768,1231.336,-0.86,-0.527,0.235,-103.537,3.293,-39.939,2108.154,80,1,0
-1.008,0.22,-0.062,1.768,-0.732,8.72,0,-0.999,0.2,0.119,2.866,2.134,-3.171,0,0.063,0.913,0.366,3.171,-7.5,-1.524,392.633,-0.637,0.132,-0.809,-1.951,21.159,-2.439,1231.336,-0.86,-0.527,0.235,-127.866,-0.366,-21.28,2108.154,160,1,0
-1,0.259,-0.063,3.963,-0.732,6.829,0,-0.993,0.227,0.096,7.866,-0.122,-3.598,0,0.137,0.906,0.362,1.646,-10.427,-3.598,392.633,-0.667,0.074,-0.846,1.037,11.22,-1.463,1231.336,-0.827,-0.458,0.128,-92.317,2.561,-5.366,2108.154,116,1,0
-1,0.259,-0.063,4.451,0.183,2.622,0,-0.988,0.282,0.098,13.11,-1.646,-6.037,0,0.137,0.906,0.362,2.744,-12.5,-4.146,392.633,-0.69,0.041,-0.801,1.951,0.793,-0.427,1231.336,-0.827,-0.458,0.128,-30.976,6.707,-10,2108.154,116,1,0
-1.002,0.263,-0.064,-3.171,1.037,-0.122,0,-0.988,0.282,0.098,12.805,-5.122,-3.476,0,0.189,0.907,0.358,4.756,-10.122,-3.293,392.633,-0.69,0.041,-0.801,-1.098,4.817,-3.354,1231.336,-1.089,-0.367,0.094,11.463,8.232,-30.183,2108.154,153,1,0
-1.007,0.24,-0.064,-4.573,1.768,-2.317,0,-0.969,0.321,0.106,-0.488,-4.268,1.646,0,0.158,0.896,0.382,2.134,-1.159,-1.463,392.633,-0.68,0.076,-0.809,-5.183,-4.817,-1.28,1231.336,-1.238,-0.287,0.144,22.134,5.915,-86.707,2108.154,92,1,0
-1.007,0.24,-0.064,-7.866,-0.305,-1.402,0,-0.973,0.348,0.026,-3.049,-4.146,2.073,0,0.158,0.896,0.382,3.537,1.89,-0.488,392.633,-0.686,0.076,-0.803,5.183,3.841,-1.402,1231.336,-1.238,-0.287,0.144,25.488,9.817,-114.817,2108.154,100,1,0
-1.004,0.235,-0.059,-3.659,-0.061,-3.171,0,-0.973,0.348,0.026,-1.098,19.207,3.415,0,0.117,0.911,0.372,2.622,3.232,-0.183,392.633,-0.686,0.076,-0.803,-3.415,6.829,-1.159,1231.336,-1.178,-0.215,0.086,73.171,-2.805,-119.878,2108.154,35,1,0
-1.004,0.235,-0.059,0.549,0.793,-3.354,0,-0.987,0.185,0.209,-64.573,38.963,12.134,0,0.122,0.903,0.358,-4.268,0,2.317,392.633,-0.686,0.091,-0.804,-2.073,-0.61,0.183,1231.336,-1.003,-0.017,0.084,101.22,-19.817,-88.598,2108.154,40,1,0
-1.006,0.236,-0.061,3.963,0.671,-2.988,0,-0.983,0.279,0.063,13.537,-3.659,-1.951,0,0.122,0.903,0.358,6.646,0.732,2.073,392.633,-0.69,0.056,-0.793,0.915,6.707,-3.537,1231.336,-1.003,-0.017,0.084,20.671,-14.573,-81.098,2108.154,92,1,0
-1.004,0.229,-0.063,2.378,0.61,-2.317,0,-0.983,0.279,0.063,-8.354,2.195,-0.549,0,0.134,0.915,0.363,0.183,0,0.671,392.633,-0.69,0.056,-0.793,-1.524,5.671,-1.951,1231.336,-0.876,-0.185,0.06,-55.488,-8.11,-70.427,2108.154,57,1,0
-1.004,0.229,-0.063,2.866,0.732,-2.439,0,-0.982,0.265,0.1,-0.976,-0.183,-0.915,0,0.129,0.906,0.342,0.305,0.732,2.622,392.633,-0.679,0.061,-0.795,0.732,-3.72,-1.951,1231.336,-0.876,-0.185,0.06,-69.39,-5.671,-34.878,2108.154,20,1,0
-1.004,0.228,-0.066,2.988,0.793,-3.049,0,-0.982,0.265,0.1,-3.659,-1.037,-1.463,0,0.129,0.906,0.342,2.805,-1.28,2.073,392.633,-0.679,0.061,-0.795,5.183,6.22,-3.049,1231.336,-0.857,-0.299,0.013,4.512,0.061,37.561,2108.154,92,1,0
-1.004,0.228,-0.066,0.732,1.098,-3.841,0,-0.986,0.247,0.11,-1.829,-2.012,-0.305,0,0.115,0.904,0.361,-1.159,-2.622,0.793,392.633,-0.67,0.062,-0.805,2.988,1.89,-1.28,1231.336,-0.958,-0.267,0.081,23.537,3.537,65.305,2108.154,84,1,0
-1.008,0.219,-0.065,1.585,1.22,-1.768,0,-0.981,0.266,0.106,0.366,-2.683,0.305,0,0.115,0.904,0.361,-0.549,-2.012,-0.976,392.633,-0.67,0.062,-0.805,1.098,0.244,-1.098,1231.336,-0.958,-0.267,0.081,17.5,9.512,85.549,2108.154,144,1,0
-1.009,0.223,-0.067,2.256,1.28,-1.402,0,-0.981,0.266,0.106,4.207,-1.768,0.549,0,0.141,0.898,0.353,-0.305,-2.073,-1.28,392.633,-0.678,0.069,-0.808,-2.439,2.988,-0.305,1231.336,-1.093,-0.312,0.119,8.171,14.573,96.463,2108.154,118,1,0
-1.009,0.223,-0.067,2.195,1.341,-1.463,0,-0.985,0.265,0.105,1.341,-1.402,-0.793,0,0.141,0.898,0.353,0.915,-2.805,-0.305,392.633,-0.678,0.065,-0.812,-1.951,5.793,-0.122,1231.336,-1.093,-0.312,0.119,8.476,14.634,96.646,2108.154,85,1,0
-1.007,0.22,-0.069,1.585,1.463,-1.707,0,-0.985,0.265,0.105,-0.305,-1.402,-1.707,0,0.147,0.911,0.348,2.622,-0.854,0.244,392.633,-0.678,0.065,-0.812,-1.037,6.341,0.915,1231.336,-1.111,-0.34,0.113,17.744,12.561,87.439,2108.154,123,1,0
-1.007,0.22,-0.069,0.488,1.402,-1.646,0,-0.985,0.265,0.103,-0.854,-0.915,-0.427,0,0.137,0.908,0.35,1.159,-0.427,0.305,392.633,-0.662,0.068,-0.821,-0.793,2.683,1.22,1231.336,-1.041,-0.321,0.115,16.037,2.439,48.598,2108.154,-23,1,0
-1.009,0.216,-0.071,-0.122,0.915,0.61,0,-0.981,0.258,0.103,-0.976,-0.61,-0.488,0,0.135,0.905,0.348,0.793,-1.28,-0.244,392.633,-0.657,0.069,-0.834,3.78,-4.146,1.951,1231.336,-1.004,-0.324,0.095,-9.329,-4.024,7.744,2108.154,27,1,0
-1.009,0.216,-0.071,0.305,0.549,1.037,0,-0.988,0.251,0.097,-0.427,0.366,-1.585,0,0.139,0.916,0.337,1.951,-2.073,-0.244,392.633,-0.652,0.066,-0.836,4.39,0.61,2.073,1231.336,-0.991,-0.314,0.068,-15.061,-5.183,-21.098,2108.154,-177,1,0
-1.01,0.22,-0.07,0.549,0.061,0.671,0,-0.991,0.249,0.096,0.732,-0.915,-1.341,0,0.139,0.916,0.337,0.671,-2.805,-0.427,392.633,-0.657,0.064,-0.822,4.085,-1.524,1.707,1231.336,-0.991,-0.314,0.068,-10.915,-3.963,-30.488,2108.154,-243,1,0
-1.008,0.218,-0.069,0,-0.061,0.549,0,-0.991,0.249,0.096,1.89,-1.28,-0.427,0,0.144,0.914,0.344,-0.488,-2.805,-1.037,392.633,-0.657,0.064,-0.822,2.561,-0.915,2.317,1231.336,-1.01,-0.292,0.072,-4.207,-2.805,-38.049,2108.154,26,1,0
-1.008,0.218,-0.069,-0.061,-0.122,0.427,0,-0.986,0.258,0.097,2.195,-2.256,0.61,0,0.146,0.903,0.347,-1.524,-3.11,-1.524,392.633,-0.667,0.065,-0.815,3.659,-1.524,2.073,1231.336,-1.01,-0.292,0.072,2.317,-0.793,-44.939,2108.154,164,1,0
-1.007,0.219,-0.069,-0.305,-0.366,0.793,0,-0.986,0.258,0.097,2.195,-2.561,0.488,0,0.146,0.903,0.347,-0.549,-2.378,-1.159,392.633,-0.667,0.065,-0.815,2.134,-2.5,2.866,1231.336,-1.026,-0.264,0.086,7.805,1.829,-49.573,2108.154,13,1,0
-1.007,0.219,-0.069,-0.61,-0.488,0.793,0,-0.981,0.27,0.102,1.89,-2.805,0.305,0,0.141,0.901,0.354,-0.549,-1.585,-0.793,392.633,-0.672,0.062,-0.809,3.049,-1.341,2.012,1231.336,-1.026,-0.264,0.086,12.622,1.89,-51.463,2108.154,13,1,0
-1.006,0.22,-0.066,-0.976,-0.61,0.549,0,-0.978,0.274,0.11,0,-1.89,-0.122,0,0.141,0.901,0.354,-0.183,-1.159,-0.671,392.633,-0.672,0.062,-0.809,3.11,-1.037,1.037,1231.336,-1.005,-0.231,0.093,12.683,0.854,-42.256,2108.154,37,1,0
-1.006,0.22,-0.066,-1.098,-0.549,0.61,0,-0.978,0.274,0.11,-0.488,-1.768,-0.183,0,0.128,0.902,0.361,0.976,-0.305,-0.305,392.633,-0.681,0.062,-0.803,2.256,0.244,0.122,1231.336,-0.97,-0.223,0.097,7.927,1.098,-32.134,2108.154,124,1,0
-1.009,0.225,-0.064,-1.707,0.183,-1.524,0,-0.98,0.278,0.12,-0.976,-1.768,-0.61,0,0.128,0.902,0.361,0.976,0.732,-0.427,392.633,-0.687,0.061,-0.801,0.915,2.439,0.427,1231.336,-0.97,-0.223,0.097,3.11,1.951,-19.39,2108.154,247,1,0
-1.01,0.237,-0.061,-9.329,0.915,-3.659,0,-0.98,0.278,0.12,-0.366,-1.524,-0.793,0,0.122,0.908,0.371,-0.183,1.28,-0.061,392.633,-0.687,0.061,-0.801,0.793,0.732,0.122,1231.336,-0.958,-0.24,0.096,0.61,1.829,-5.427,2108.154,742,1,0
-1.01,0.237,-0.061,-5.305,2.256,-10.671,0,-0.981,0.285,0.124,1.28,-2.195,0.427,0,0.123,0.907,0.375,1.829,0.732,-1.159,392.633,-0.692,0.054,-0.803,1.402,3.78,-0.793,1231.336,-0.966,-0.267,0.103,-4.756,2.927,20.793,2108.154,285,1,0
-1.012,0.192,-0.065,-7.683,1.22,-5.427,0,-0.97,0.292,0.117,3.11,-4.634,3.232,0,0.123,0.907,0.375,4.024,1.951,-1.402,392.633,-0.682,0.055,-0.794,-0.183,-4.024,-0.671,1231.336,-0.966,-0.267,0.103,-5.976,2.988,32.256,2108.154,-220,1,0
-1.014,0.186,-0.063,0.549,0.915,-4.024,0,-0.97,0.292,0.117,0.122,-3.963,4.268,0,0.12,0.889,0.367,-1.28,2.866,0.305,392.633,-0.682,0.055,-0.794,0.976,-0.732,0,1231.336,-0.989,-0.29,0.108,-8.841,3.11,39.939,2108.154,-484,1,0
-1.014,0.186,-0.063,5.183,0.671,-1.524,0,-0.967,0.273,0.113,-4.268,3.841,-2.5,0,0.115,0.895,0.354,5,1.463,1.707,392.633,-0.682,0.052,-0.803,0.854,2.439,-0.793,1231.336,-0.989,-0.29,0.108,-21.829,3.537,42.5,2108.154,-356,1,0
-1.021,0.216,-0.063,8.476,0.976,-2.866,0,-0.985,0.257,0.107,-1.951,3.72,-5.244,0,0.115,0.895,0.354,4.878,0.793,1.768,392.633,-0.682,0.052,-0.803,-0.976,-3.049,-1.829,1231.336,-1.039,-0.35,0.076,-31.159,2.134,41.585,2108.154,-165,1,0
-1.021,0.216,-0.063,6.22,2.805,-7.012,0,-0.985,0.257,0.107,-2.256,5.732,-8.659,0,0.138,0.95,0.323,9.573,-1.402,2.805,392.633,-0.707,0.053,-0.814,0.854,3.963,-2.317,1231.336,-1.032,-0.35,0.065,0.305,-0.366,33.232,2108.154,-21,1,0
-1.026,0.186,-0.073,3.963,2.927,-8.232,0,-1.008,0.249,0.098,-0.732,2.5,-5.61,0,0.138,0.95,0.323,6.707,-1.159,3.171,392.633,-0.655,0.047,-0.817,-1.22,0.976,-2.134,1231.336,-1.032,-0.35,0.065,3.72,0.488,22.866,2108.154,88,1,0
-1.007,0.16,-0.08,5.549,1.28,-4.146,0,-1.008,0.249,0.098,2.439,-3.049,-1.22,0,0.137,0.937,0.327,5.122,-0.671,3.11,392.633,-0.655,0.047,-0.817,-2.561,20.915,-2.561,1231.336,-0.982,-0.324,0.095,2.073,2.622,10.976,2108.154,92,1,0
-1.007,0.16,-0.08,1.89,2.073,-2.195,0,-0.996,0.24,0.096,-0.061,-1.951,0.488,0,0.127,0.892,0.309,-2.073,-0.061,-0.244,392.633,-0.608,0.066,-0.84,0.549,4.329,-0.549,1231.336,-0.982,-0.324,0.095,5.061,1.22,-0.122,2108.154,136,1,0
-1.012,0.171,-0.084,4.634,1.463,-1.28,0,-0.982,0.229,0.099,2.744,-1.89,-2.134,0,0.127,0.892,0.309,2.256,-2.256,-1.037,429.443,-0.608,0.066,-0.84,-3.293,23.902,-0.976,1187.924,-1.05,-0.176,0.233,10.366,-6.707,-9.39,2369.185,152,1,0
-1.012,0.171,-0.084,6.037,0.183,-1.463,0,-0.982,0.229,0.099,0.854,0.549,-2.866,0,0.146,0.924,0.321,5.915,-2.195,-0.427,429.443,-0.643,0.154,-0.86,-5.183,35.976,-6.159,1187.924,-1.05,-0.176,0.233,-57.5,-30.976,-33.11,2369.185,88,1,0
-1.012,0.163,-0.073,2.5,1.707,-2.683,0,-0.991,0.244,0.088,4.634,-0.366,-2.073,0,0.146,0.924,0.321,-0.305,-1.341,-2.683,429.443,-0.633,0.167,-0.869,-73.171,-20.671,-27.927,1187.924,-1.098,-0.133,0.158,-535.183,-72.805,-137.378,2369.185,300,1,0
-1.014,0.162,-0.076,1.524,0.671,-1.585,0,-0.991,0.244,0.088,6.159,-1.402,-0.305,0,0.148,0.907,0.311,3.659,-2.073,-1.951,429.443,-0.633,0.167,-0.869,-154.085,22.866,-25.366,1187.924,-0.887,-0.946,-0.381,-482.744,-49.024,-136.89,2369.185,28,1,0
-1.014,0.162,-0.076,-2.561,0.854,-1.524,0,-0.971,0.256,0.096,7.378,-4.512,-0.793,0,0.211,0.9,0.335,2.195,2.439,1.585,429.443,-0.599,0.147,-0.853,-92.378,-37.805,-65.183,1187.924,-0.887,-0.946,-0.381,-127.317,6.829,-97.805,2369.185,-34,1,0
-1.02,0.166,-0.072,-2.927,1.037,-2.439,0,-0.959,0.315,0.095,0.732,0.854,-1.951,0,0.211,0.9,0.335,0.793,7.561,6.159,429.443,-0.599,0.147,-0.853,-46.463,8.841,-70.915,1187.924,-0.938,-0.433,-0.204,202.5,30.244,-78.049,2369.185,-11,1,0
-1.02,0.166,-0.072,-4.756,2.012,-3.902,0,-0.959,0.315,0.095,-15.366,7.256,-2.134,0,0.174,0.911,0.318,3.049,12.622,6.159,429.443,-0.654,0.158,-0.821,-55.244,30.61,-82.683,1187.924,-0.943,-0.003,0.106,47.683,-9.634,-55,2369.185,25,1,0
-1.019,0.157,-0.08,-6.585,1.585,-4.451,0,-0.985,0.271,0.1,-21.402,6.402,-2.317,0,0.131,0.915,0.321,4.695,18.902,8.293,429.443,-0.627,0.064,-0.851,-22.073,19.024,-42.561,1187.924,-0.82,-0.422,-0.063,-122.073,-27.5,-32.317,2369.185,22,1,0
-1.018,0.131,-0.085,-1.951,-0.061,3.232,0,-0.988,0.232,0.09,-24.268,8.415,-1.951,0,0.117,0.896,0.329,3.415,17.195,8.049,429.443,-0.623,0.049,-0.84,-15.122,15.122,-23.293,1187.924,-0.82,-0.422,-0.063,-56.524,-21.402,-10.793,2369.185,11,1,0
-1.008,0.161,-0.085,-6.585,-0.732,5.183,0,-0.987,0.206,0.073,-17.866,10.488,-8.537,0,0.118,0.91,0.32,6.28,10.366,6.829,429.443,-0.664,0.107,-0.808,-8.537,-2.134,6.829,1187.924,-0.794,-0.484,-0.012,6.341,-13.659,48.11,2369.185,24,1,0
-1.005,0.176,-0.074,-25.366,-6.098,4.512,0,-0.99,0.194,0.079,-8.72,10.976,-8.11,0,0.102,0.891,0.319,1.585,1.159,0.488,429.443,-0.658,0.097,-0.782,0.732,-7.744,3.415,1187.924,-0.788,-0.668,-0.026,2.744,-22.805,85.976,2369.185,74,1,0
-1.049,0.18,-0.051,-9.817,-1.524,-2.012,0,-1,0.227,0.092,0.427,6.098,-3.354,0,0.102,0.891,0.319,11.646,-4.085,0.366,429.443,-0.72,0.074,-0.829,3.171,5.732,10,1187.924,-0.819,-0.837,-0.044,132.866,-8.902,94.695,2369.185,-19,1,0
-1.049,0.18,-0.051,-1.037,1.402,-1.768,0,-1,0.227,0.092,-0.061,1.28,-0.854,0,0.09,0.966,0.41,14.573,-6.646,0.732,429.443,-0.72,0.074,-0.829,10.488,-3.476,13.171,1187.924,-0.84,-0.794,0.178,229.512,7.195,97.195,2369.185,108,1,0
-1.012,0.17,-0.054,-6.585,0.488,1.28,0,-1.01,0.228,0.087,7.744,2.5,-5.122,0,0.128,0.862,0.29,-0.488,-12.378,-1.28,429.443,-0.663,-0.001,-0.833,11.646,-7.988,17.439,1187.924,-0.84,-0.794,0.178,294.024,29.024,82.988,2369.185,192,1,0
-1.015,0.175,-0.068,-7.5,3.11,-1.098,0,-0.984,0.217,0.073,7.256,6.707,-10.549,0,0.128,0.862,0.29,25.976,-18.171,0.549,429.443,-0.663,-0.001,-0.833,38.659,-17.378,49.146,1187.924,-0.85,-0.997,0.928,258.049,28.049,44.695,2369.185,92,1,0
-1.015,0.175,-0.068,-3.415,1.585,-1.829,0,-0.984,0.217,0.073,10.305,2.134,-11.098,0,0.187,0.929,0.292,11.951,-11.951,-0.61,429.443,-0.7,-0.017,-0.716,111.585,-33.537,105,1187.924,-0.85,-0.997,0.928,214.329,0.61,-1.524,2369.185,56,1,0
-1.025,0.18,-0.062,-0.488,2.927,-4.329,0,-0.984,0.229,0.047,4.329,1.22,-8.963,0,0.187,0.929,0.292,6.28,-6.28,1.22,429.443,-0.815,0.178,-0.618,121.89,-52.866,87.927,1187.924,-1.119,-1.109,0.937,138.293,-52.012,-57.073,2369.185,89,1,0
-1.025,0.18,-0.062,4.085,4.573,-8.049,0,-0.984,0.229,0.047,5.488,3.171,-6.28,0,0.13,0.926,0.325,17.378,-6.463,2.988,429.443,-0.815,0.178,-0.618,104.878,-19.634,63.171,1187.924,-1.119,-1.109,0.937,117.622,-89.573,-95.244,2369.185,92,1,0
-1.034,0.19,-0.065,8.72,4.634,-12.439,0,-1.001,0.216,0.057,12.805,-4.573,-8.415,0,0.13,0.926,0.325,16.646,-6.28,0.671,429.443,-0.727,0.161,-0.689,90.915,53.049,38.78,1187.924,-1.208,-0.702,0.389,112.561,-116.037,-133.963,2369.185,-18,1,0
-1.056,0.151,-0.068,14.268,7.866,-32.866,2.323,-0.997,0.228,0.088,19.329,-6.951,-6.402,0,0.094,0.9,0.343,15.061,-19.512,-0.61,429.443,-0.695,0.014,-0.8,55.366,76.707,18.841,1187.924,-0.963,-0.293,0.254,86.768,-112.073,-134.39,2369.185,88,1,0
-1.056,0.151,-0.068,11.28,8.598,-41.829,2.323,-0.997,0.228,0.088,27.256,-12.073,-5.244,0,0.168,0.882,0.346,18.293,-22.927,-0.122,429.443,-0.695,0.014,-0.8,33.902,23.476,32.012,1187.924,-0.963,-0.293,0.254,76.402,-95.244,-116.829,2369.185,346,1,0
-1.061,0.062,-0.095,-4.512,9.695,-42.256,2.323,-0.969,0.295,0.097,31.341,-19.634,-2.683,0,0.168,0.882,0.346,13.598,-23.293,-0.61,429.443,-0.625,0.007,-0.827,25.61,37.561,25.427,1187.924,-0.653,-0.115,0.378,50.183,-50.854,-56.28,2369.185,483,1,0
-1.061,0.062,-0.095,-8.476,10.488,-41.646,2.323,-0.922,0.311,0.129,24.329,-15.854,-7.683,0,0.156,0.863,0.327,22.073,-18.171,1.585,429.443,-0.625,0.007,-0.827,22.073,48.293,20.793,1187.924,-0.501,-0.112,0.448,52.744,-32.744,-29.817,2369.185,-387,1,0
-1.082,0.04,-0.086,-2.012,10.061,-48.78,2.323,-0.922,0.311,0.129,20.671,-8.171,-10.183,0,0.19,0.88,0.329,25.854,-13.963,6.159,429.443,-0.602,0.055,-0.819,6.22,23.963,15.366,1187.924,-0.501,-0.112,0.448,56.22,-12.805,-13.841,2369.185,-356,1,0
-1.091,-0.022,-0.108,-8.78,17.256,-71.524,2.323,-0.916,0.342,0.149,9.878,-1.463,-13.232,0,0.19,0.88,0.329,21.463,-8.537,9.146,429.443,-0.602,0.055,-0.819,9.512,35.305,13.11,1187.924,-0.394,-0.122,0.422,12.134,2.256,-11.22,2369.185,-334,1,0
-1.091,-0.022,-0.108,-14.634,19.878,-80.122,2.323,-0.896,0.31,0.171,-14.085,6.402,-13.659,0,0.128,0.849,0.295,23.11,-2.561,8.659,429.443,-0.577,0.047,-0.78,-1.159,31.28,15.061,1187.924,-0.394,-0.122,0.422,32.683,20.732,10.915,2369.185,44,1,0
-1.056,-0.135,-0.13,-11.159,20.671,-94.573,2.323,-0.896,0.31,0.171,-17.134,8.415,-13.11,0,0.061,0.786,0.244,29.329,-2.134,5.061,429.443,-0.544,0.058,-0.706,5.61,41.098,15.122,1187.924,-0.297,-0.063,0.44,26.159,55.793,30.305,2369.185,122,1,0
-1.056,-0.135,-0.13,-5.427,24.878,-105.549,2.323,-0.836,0.202,0.135,-17.256,13.415,-9.756,0,0.061,0.786,0.244,21.585,-2.561,2.195,429.443,-0.544,0.058,-0.706,14.573,34.756,15.61,1187.924,-0.279,-0.055,0.517,33.841,72.927,42.195,2369.185,144,1,0
-1.188,-0.091,-0.117,5,43.049,-162.683,2.323,-0.836,0.202,0.135,-8.171,11.646,-11.89,0,0.041,0.618,0.192,11.037,-14.39,-1.28,429.443,-0.419,0.036,-0.546,35.671,19.756,5.427,1187.924,-0.279,-0.055,0.517,28.232,75.305,36.463,2369.185,104,1,0
-0.775,-0.341,-0.171,35.366,40.488,-201.951,2.323,-0.743,0.152,0.123,2.012,0.488,-6.768,0,0.041,0.618,0.192,1.951,-31.524,-7.195,429.443,-0.289,0.091,-0.322,40.488,61.037,1.524,1187.924,-0.165,-0.13,0.6,83.11,75.61,33.354,2369.185,76,1,1
-0.775,-0.341,-0.171,33.963,36.28,-199.146,2.323,-0.515,0.134,0.01,-5,-41.159,18.598,0,0.066,0.388,0.157,15.427,-36.646,-19.146,429.443,-0.289,0.091,-0.322,39.817,24.39,2.744,1187.924,-0.165,-0.13,0.6,110.122,71.585,24.634,2369.185,82,1,1
-0.063,-0.876,-0.568,48.049,40.427,-186.646,2.323,-0.343,-0.029,0.014,42.134,-22.195,-8.963,0,-0.019,0.228,0.011,-23.841,-29.146,-46.28,429.443,-0.408,0.074,-0.197,58.232,32.744,7.866,1187.924,-0.133,0.197,0.221,114.146,28.354,22.561,2369.185,92,1,1
-0.238,-2.177,0.041,190.854,7.439,-147.439,2.323,-1.203,-0.245,0.016,41.829,-2.317,-79.146,0,-0.004,0.646,-0.353,201.707,-80.244,-29.634,429.443,-0.607,0.11,-0.135,66.159,6.585,0.183,1187.924,-3.066,-0.699,-1.536,14.512,48.659,30.854,2369.185,135,1,1
-0.238,-2.177,0.041,190.854,7.439,-147.439,2.323,-1.203,-0.245,0.016,31.402,13.659,-135.366,0,-0.306,1.296,-0.503,220.671,-93.78,-51.402,429.443,-0.31,-0.01,-0.399,47.012,43.049,-15.061,1187.924,-3.066,-0.699,-1.536,-72.073,110.671,-187.988,2369.185,102,1,1
-1.751,-1.808,0.386,166.281,23.902,-115.976,2.323,-2.085,-0.165,0.328,50,7.256,-212.256,0,-0.306,1.296,-0.503,315.305,-105.732,-90.061,429.443,0.857,-0.386,-2.129,-49.634,169.512,-103.842,1187.924,-3.841,-0.825,3.09,-219.329,-58.232,-299.146,2369.185,48,1,1
-1.751,-1.808,0.386,64.573,-38.476,-123.415,2.323,-1.076,0.223,0.309,90.366,-20.122,-375,0,0.118,1.127,-1.228,445.976,-74.329,-83.659,429.443,0.857,-0.386,-2.129,-69.329,102.439,-21.829,1187.924,-3.841,-0.825,3.09,-80.488,-62.378,-260.61,2369.185,107,1,1
-0.969,-0.633,0.313,37.378,-40.427,-136.281,2.323,-1.076,0.223,0.309,89.268,65.427,-366.342,0,0.118,1.127,-1.228,676.768,-37.805,-14.024,429.443,0.755,-0.678,-2.231,60.671,43.171,35.854,1187.924,0.631,-0.494,0.927,-19.329,-122.866,-136.585,2369.185,42,1,1
-0.969,-0.633,0.313,79.207,-22.195,-137.561,2.323,0.192,-1.305,0.091,-87.622,127.744,-308.476,0,-0.502,-0.216,-1.57,428.232,-229.268,-28.171,429.443,0.755,-0.678,-2.231,152.683,-105,0.854,1187.924,-0.375,-0.359,-0.055,-49.695,-66.037,-11.829,2369.185,36,1,1
0.225,-0.121,0.362,184.451,-45.671,-196.037,2.323,0.192,-1.305,0.091,-55.732,25.305,-247.256,0,-0.84,-0.354,-1.919,135.854,19.39,-19.695,292.824,0.62,-0.677,-1.601,49.573,-177.195,46.829,783.897,-0.375,-0.359,-0.055,-13.963,-0.061,-2.012,2101.073,184,1,1
0.225,-0.121,0.362,202.622,-44.451,-231.829,2.323,-0.125,-2.343,0.007,42.927,-72.195,-189.024,0,-0.84,-0.354,-1.919,101.646,-6.341,-11.28,292.824,0.62,-0.677,-1.601,58.537,-34.939,27.256,783.897,-1.725,-0.966,0.8,-59.329,96.463,-17.683,2101.073,-84,1,1
0.743,0.526,0.483,-22.134,-1.951,-188.171,2.323,-0.125,-2.343,0.007,-43.415,-67.378,-102.439,0,-0.418,-0.343,-1.213,75.854,11.829,-28.476,292.824,0.254,-0.82,-1.655,-8.902,50.854,5.122,783.897,-1.725,-0.966,0.8,-118.963,148.963,30.61,2101.073,-36,1,1
0.525,0.987,0.579,-36.28,-27.134,-173.598,2.323,0.249,-1.385,-0.015,-37.683,-21.646,-29.573,0,-0.418,-0.343,-1.213,10.61,55.305,-36.341,292.824,0.23,-0.392,-1.338,-52.744,98.415,-22.134,783.897,-0.944,-0.776,0.372,-60.671,116.951,101.524,2101.073,22,1,1
0.525,0.987,0.579,-82.622,-58.72,-137.927,2.323,0.447,-0.5,-0.139,-50.793,-5.549,-13.841,0,-0.079,-0.309,-0.631,-64.146,64.939,-15.366,292.824,0.23,-0.392,-1.338,-69.878,76.098,-47.439,783.897,-0.944,-0.776,0.372,-4.878,67.439,131.768,2101.073,196,1,1
0.356,1.22,0.229,-120.671,-75.122,-68.232,2.323,0.447,-0.5,-0.139,-78.841,43.415,9.085,0,-0.125,-0.266,-0.461,-58.293,62.256,37.866,292.824,0.18,-0.307,-0.934,-85.061,29.573,-34.329,783.897,-0.145,-0.291,0.05,13.049,5.976,37.256,2101.073,-580,1,1
0.156,0.92,0.003,-78.659,-106.463,39.146,2.323,0.218,-0.307,-0.123,-73.537,60.793,38.11,0,-0.125,-0.266,-0.461,-19.024,26.707,56.341,292.824,0.214,-0.266,-0.699,-81.768,10,-44.573,783.897,-0.659,-0.641,0.186,21.829,9.817,-3.049,2101.073,329,1,1
0.156,0.92,0.003,-88.598,-96.098,103.476,2.323,-0.082,-0.469,-0.029,-80.793,61.098,55.732,0,-0.359,-0.225,-0.529,-26.463,2.134,34.573,292.824,0.214,-0.266,-0.699,-66.524,-2.805,-18.415,783.897,-0.659,-0.641,0.186,12.744,4.329,-7.073,2101.073,-193,1,1
0.285,0.292,-0.124,-99.573,-87.134,130.061,2.323,-0.082,-0.469,-0.029,-70.671,48.11,61.585,0,-0.359,-0.225,-0.529,-8.415,-10.122,11.646,292.824,0.266,-0.07,-0.835,-8.049,25.305,-15.915,783.897,-1.033,-0.574,0.271,2.439,10.793,2.561,2101.073,1461,1,1
0.285,0.292,-0.124,-77.012,-71.89,161.281,2.323,-0.093,-1.133,-0.063,32.134,50.976,64.207,0,-0.336,-0.16,-1.01,-59.634,34.512,7.256,292.824,0.266,-0.07,-0.835,32.256,1.037,7.073,783.897,-1.059,-0.518,0.174,-0.488,11.28,-1.341,2101.073,864,1,1
1.792,-1.146,-0.157,109.817,-23.78,270.427,2.323,-0.298,-1.536,-0.598,-108.781,-9.39,59.573,0,-0.241,-0.033,-1.489,-62.805,2.256,2.195,292.824,0.407,-0.006,-1.316,14.756,-18.841,-34.085,783.897,-1.057,-0.412,0.484,-4.756,-28.537,33.902,2101.073,500,1,1
0.154,-1.51,0.171,55,61.768,285.61,2.323,-0.298,-1.536,-0.598,-134.024,-0.854,59.207,0,0.191,0.122,-1.18,2.988,17.744,-7.134,292.824,0.381,-0.148,-1.421,5.793,-1.098,-6.646,783.897,-1.057,-0.412,0.484,15.488,-79.573,45.549,2101.073,233,1,1
-1.356,-1.339,-0.24,-114.329,0.183,180.549,2.323,-0.59,-1.127,-0.701,-3.415,-70.427,34.573,0,0.191,0.122,-1.18,23.354,29.268,0.061,292.824,-0.032,0.013,-0.962,-28.72,-40,2.561,783.897,-0.848,-0.266,0.459,18.049,-93.963,47.317,2101.073,135,1,1
-1.356,-1.339,-0.24,-93.598,-20.732,101.098,2.323,-0.176,-0.578,-0.32,-39.024,4.024,15.488,0,0.029,0.021,-0.827,-6.037,89.695,8.72,292.824,-0.032,0.013,-0.962,-7.439,-26.463,-19.878,783.897,-0.848,-0.266,0.459,16.22,-73.659,26.89,2101.073,-2048,1,1
-0.175,-0.905,-0.123,-76.768,1.89,32.988,2.323,-0.176,-0.578,-0.32,5.244,44.268,-8.78,0,0.029,0.021,-0.827,-37.256,99.878,8.049,292.824,-0.134,0.076,-0.864,-48.598,-19.146,-6.585,783.897,-0.595,-0.293,0.556,28.659,-36.402,-8.963,2101.073,2047,1,1
-0.175,-0.905,-0.123,-56.341,8.72,4.451,2.323,-0.442,-0.494,-0.212,-23.78,24.39,17.195,0,-0.006,0.122,-0.738,-27.5,45.427,1.159,292.824,-0.134,0.076,-0.864,-47.439,-14.085,-4.085,783.897,-0.595,-0.293,0.556,19.451,9.329,-32.561,2101.073,1345,1,1
-0.05,-1.495,-0.098,-33.902,-8.171,45.549,2.323,-0.442,-0.494,-0.212,-89.573,40.854,37.012,0,-0.05,0.155,-0.941,-10.366,15.366,1.829,292.824,-0.064,0.019,-0.922,-4.024,-6.22,-8.293,783.897,-0.745,-0.532,0.49,2.012,26.524,-20.671,2101.073,-2048,1,1
-0.05,-1.495,-0.098,43.232,-22.622,122.317,2.323,-0.586,-0.88,-0.603,-42.073,32.866,-9.085,0,-0.05,0.155,-0.941,0.549,-13.963,-1.707,292.824,-0.025,0.054,-0.929,18.11,8.72,15.183,783.897,-0.841,-0.422,0.494,11.159,44.085,-29.329,2101.073,-1073,1,1
-0.525,-1.784,-0.086,94.329,-21.28,7.683,2.323,-0.438,-0.941,-0.709,99.817,-21.22,-25.366,0,0.044,0.121,-1.053,8.902,-32.073,-2.5,292.824,0.088,0.063,-1.09,4.329,23.902,10.793,783.897,-0.891,-0.307,0.372,-16.89,68.232,-36.585,2101.073,-169,1,1
-0.245,-1.125,0.062,-8.049,5.061,-63.11,2.323,-0.263,-0.7,-0.362,161.22,-80.61,-16.463,0,0.184,0.057,-1.051,5.305,-23.902,-1.646,292.824,0.088,0.063,-1.09,28.232,18.78,7.927,783.897,-0.891,-0.307,0.372,-18.293,62.134,-23.354,2101.073,-221,1,1
0.032,-0.681,0.109,-64.39,13.963,-47.073,2.323,-0.334,-0.851,-0.348,4.512,12.317,-20.976,0,0.063,0.083,-1.076,9.451,-2.866,1.463,292.824,0.205,0.022,-1.098,-9.817,10.732,13.537,783.897,-1.016,-0.549,0.27,-9.817,19.695,9.329,2101.073,-106,1,1
0.088,-0.724,0.037,-37.256,9.146,-31.951,2.323,-0.334,-0.851,-0.348,5.793,16.89,-32.927,0,-0.066,0.071,-0.927,7.317,-2.256,1.341,292.824,0.233,-0.02,-1.112,-9.146,28.232,9.695,783.897,-0.869,-0.5,0.19,-6.951,-22.561,42.988,2101.073,453,1,1
0.088,-0.724,0.037,-2.256,-0.305,-13.78,2.323,-0.29,-0.958,-0.371,19.695,3.049,-24.451,0,-0.066,0.071,-0.927,3.78,-5.915,0.061,292.824,0.233,-0.02,-1.112,-6.28,16.402,2.744,783.897,-0.808,-0.348,0.374,-17.378,-123.415,75.488,2101.073,212,1,1
0.102,-0.667,-0.009,15.915,-6.646,8.537,2.323,-0.253,-0.892,-0.193,44.39,-25.549,3.659,0,-0.087,0.048,-0.868,-2.195,-13.537,-1.707,292.824,0.27,-0.076,-1.114,18.11,22.073,-0.488,783.897,-0.808,-0.348,0.374,-11.098,-131.159,60.976,2101.073,84,1,1
0.072,-0.748,0.024,5.854,-1.463,21.768,2.323,-0.253,-0.892,-0.193,33.841,-20.976,4.39,0,-0.087,0.048,-0.868,-7.683,-19.268,-2.744,292.824,0.278,-0.078,-0.979,9.024,5.915,-5.244,783.897,-0.833,-0.259,0.667,-10,-109.085,36.707,2101.073,1525,1,1
0.072,-0.748,0.024,-0.244,0.976,36.22,2.323,-0.229,-0.858,-0.132,26.28,-16.28,4.695,0,-0.052,0.049,-0.951,-7.439,-12.195,-1.829,292.824,0.278,-0.078,-0.979,13.293,5.366,-6.22,783.897,-0.833,-0.259,0.667,-20.122,-78.415,4.939,2101.073,1655,1,1
-0.125,-1.069,0.091,0.549,0,45.976,2.323,-0.292,-0.906,-0.161,4.329,-13.841,16.463,0,-0.031,0.076,-1.009,-0.976,3.354,1.098,292.824,0.252,-0.057,-0.954,17.805,2.439,-5.61,783.897,-0.826,-0.352,0.68,-7.988,-9.268,-8.659,2101.073,915,1,1
-0.125,-1.069,0.091,5.61,-4.451,52.134,2.323,-0.292,-0.906,-0.161,-10.915,-7.805,18.11,0,-0.031,0.076,-1.009,-0.915,7.927,1.402,292.824,0.215,-0.075,-1.085,11.829,5.244,-1.89,783.897,-0.813,-0.409,0.628,-8.476,-4.268,-2.073,2101.073,628,1,1
-0.346,-1.38,0.036,-6.098,-5.732,56.037,2.323,-0.395,-0.914,-0.216,-20.244,-1.159,15,0,-0.024,0.098,-0.965,1.89,10.183,1.524,292.824,0.215,-0.075,-1.085,-5.854,-0.976,-0.61,783.897,-0.813,-0.409,0.628,3.232,-18.293,8.902,2101.073,-1562,1,1
-0.354,-1.237,-0.054,-9.634,-3.598,7.439,2.323,-0.395,-0.914,-0.216,-24.329,0.549,9.817,0,-0.024,0.098,-0.965,4.207,8.598,1.159,292.824,0.188,-0.047,-1.16,-8.11,-1.22,-6.524,783.897,-0.732,-0.304,0.674,4.085,-39.329,23.415,2101.073,195,1,1
-0.354,-1.237,-0.054,-4.756,1.768,-22.866,2.323,-0.401,-0.87,-0.235,-28.415,10.488,-2.439,0,-0.006,0.111,-0.959,-0.976,7.439,0.305,292.824,0.161,-0.044,-1.059,-0.122,1.159,-8.537,783.897,-0.688,-0.29,0.755,-1.829,-43.659,19.268,2101.073,210,1,1
-0.168,-0.861,-0.022,-24.024,4.146,-20.854,2.323,-0.355,-0.849,-0.297,-32.317,10.732,0.244,0,0.016,0.085,-0.977,-0.671,10.366,1.89,292.824,0.161,-0.044,-1.059,1.341,-8.537,-8.171,783.897,-0.688,-0.29,0.755,-2.439,-23.78,16.037,2101.073,86,1,1
-0.104,-0.863,-0.081,-18.78,1.22,-5.244,2.323,-0.365,-0.897,-0.395,-31.098,17.5,-3.841,0,0.011,0.073,-0.971,2.073,4.024,1.89,292.824,0.199,-0.031,-0.946,-2.622,1.22,-1.585,783.897,-0.736,-0.279,0.783,-8.78,16.22,1.524,2101.073,306,1,1
-0.104,-0.863,-0.081,-4.39,-1.89,6.89,2.323,-0.365,-0.897,-0.395,-12.012,11.159,-6.159,0,0.011,0.073,-0.971,4.146,1.585,1.402,292.824,0.23,-0.03,-1,1.341,4.512,4.329,783.897,-0.732,-0.283,0.672,-12.683,23.659,-3.659,2101.073,90,1,1
-0.134,-0.968,-0.075,4.451,-2.134,11.341,2.323,-0.326,-0.865,-0.365,-1.159,4.939,-5.732,0,0.01,0.064,-0.947,3.11,1.159,0.976,292.824,0.23,-0.03,-1,-2.805,-12.256,4.451,783.897,-0.732,-0.283,0.672,-7.744,20.061,-8.171,2101.073,60,1,1
-0.139,-0.986,-0.019,1.829,-3.415,11.22,2.323,-0.326,-0.865,-0.365,2.622,1.098,-5.305,0,0.01,0.064,-0.947,2.012,0,0.671,292.824,0.257,-0.008,-1.072,-2.134,7.561,0.244,783.897,-0.812,-0.331,0.691,-3.354,14.512,-4.024,2101.073,115,1,1
-0.139,-0.986,-0.019,3.598,-5.305,13.78,2.323,-0.302,-0.856,-0.338,7.256,-1.646,-2.378,0,0.006,0.061,-0.963,0.305,-3.11,-0.183,292.824,0.271,-0.03,-1.071,3.293,-9.695,4.207,783.897,-0.812,-0.331,0.691,-6.463,20.305,-5.671,2101.073,438,1,1
-0.176,-0.866,0.012,7.378,-7.866,21.768,2.323,-0.325,-0.894,-0.339,9.146,-3.963,-1.098,0,0.004,0.074,-0.99,1.707,-4.451,-0.549,292.824,0.271,-0.03,-1.071,1.585,2.073,0.427,783.897,-0.786,-0.319,0.668,-4.939,33.11,-18.841,2101.073,-169,1,1
-0.176,-0.866,0.012,10.732,-11.28,31.463,2.323,-0.325,-0.894,-0.339,9.756,-6.037,-0.915,0,0.004,0.074,-0.99,2.439,-4.329,-0.549,0,0.23,-0.066,-1.028,1.585,17.256,0.122,292.637,-0.79,-0.357,0.601,-2.683,28.293,-15.061,2510.413,-344,1,1
-0.278,-0.905,-0.013,9.939,-11.463,39.878,2.323,-0.334,-0.89,-0.325,13.232,-7.988,-0.305,0,0.005,0.081,-0.978,1.22,-4.817,-0.61,0,0.23,-0.066,-1.028,8.537,2.5,7.195,292.637,-0.79,-0.357,0.601,-2.561,17.988,-8.537,2510.413,-285,1,1
-0.395,-1.356,-0.059,10.732,0.183,22.317,2.323,-0.334,-0.89,-0.325,15.305,-10.549,1.829,0,0.005,0.081,-0.978,-0.305,-3.659,-0.427,0,0.205,-0.045,-1.03,6.28,-2.256,7.256,292.637,-0.799,-0.373,0.586,-0.488,8.049,-4.085,2510.413,-420,1,1
-0.395,-1.356,-0.059,17.988,-0.732,-12.744,2.323,-0.337,-0.865,-0.273,13.476,-9.756,3.415,0,-0.014,0.076,-0.947,-0.854,-2.012,-0.305,0,0.205,-0.045,-1.03,-1.829,-0.366,3.293,292.637,-0.799,-0.373,0.586,0.915,1.037,-0.915,2510.413,-737,1,1
-0.285,-0.873,0.083,15.732,-3.902,-0.671,2.323,-0.343,-0.869,-0.241,11.829,-7.134,2.256,0,-0.029,0.079,-0.951,0.183,-1.22,0.305,0,0.215,-0.053,-1.032,1.22,1.341,1.341,292.637,-0.802,-0.375,0.611,1.585,-2.439,1.829,2510.413,-198,1,1
-0.285,-0.873,0.083,0.061,0.183,-2.927,2.323,-0.343,-0.869,-0.241,10.305,-5.549,0.061,0,-0.029,0.079,-0.951,1.646,-1.829,0.122,0,0.23,-0.069,-1.042,-1.28,0.061,-1.951,292.637,-0.799,-0.354,0.618,0.793,0.183,-0.427,2510.413,-150,1,1
-0.28,-0.933,0.037,-5.793,1.585,0,2.323,-0.345,-0.889,-0.23,4.207,0.915,-4.512,0,-0.021,0.079,-0.969,1.159,-2.073,0,0,0.23,-0.069,-1.042,2.866,-2.5,-2.256,292.637,-0.799,-0.354,0.618,0.305,1.463,-1.646,2510.413,52,1,1
-0.29,-1.073,-0.014,-3.232,3.171,-5.915,2.323,-0.325,-0.881,-0.233,0.793,-2.195,-1.28,0,-0.003,0.067,-0.97,-0.61,2.134,0.488,0,0.245,-0.063,-1.041,0.671,-0.915,-1.646,292.637,-0.827,-0.355,0.625,-1.037,2.683,-3.841,2510.413,203,1,1
-0.29,-1.073,-0.014,-1.098,3.78,-7.317,2.323,-0.325,-0.881,-0.233,-8.293,1.037,-0.793,0,-0.003,0.067,-0.97,1.524,3.537,1.037,0,0.248,-0.034,-1.052,-1.463,-2.073,-3.537,292.637,-0.827,-0.355,0.625,-2.683,0.549,-10.061,2510.413,215,1,1
-0.282,-1.021,0.024,5.549,-1.524,-7.805,2.323,-0.334,-0.89,-0.28,-12.134,6.098,-3.902,0,-0.009,0.067,-0.954,5.183,3.232,0.854,0,0.245,-0.055,-1.071,-7.195,-3.293,-12.256,292.637,-0.76,-0.375,0.66,6.768,-13.72,-6.037,2510.413,487,1,1
-0.252,-0.911,0.04,7.866,-1.89,-12.317,2.323,-0.323,-0.887,-0.289,-10.549,7.378,-5.793,0,-0.004,0.071,-0.966,2.805,2.134,0.427,0,0.245,-0.055,-1.071,-16.829,-5.915,-6.159,292.637,-0.76,-0.375,0.66,20.122,-25.488,3.72,2510.413,724,1,1
-0.241,-1.04,0.044,3.78,-0.732,-5.976,2.323,-0.324,-0.892,-0.308,-6.159,1.89,-1.768,0,-0.004,0.071,-0.966,-0.366,1.707,0,0,0.223,-0.029,-1.046,-12.744,-1.951,-3.537,292.637,-0.954,-0.427,1.138,33.354,-37.927,5.305,2510.413,-30,1,1
-0.241,-1.04,0.044,22.012,-8.598,7.317,2.323,-0.324,-0.892,-0.308,-6.098,1.037,0.061,0,-0.004,0.068,-0.955,3.598,-1.402,0.244,0,0.214,0.056,-1.069,-26.768,-9.573,-7.683,292.637,-0.954,-0.427,1.138,23.598,-47.439,12.622,2510.413,117,1,1
-0.253,-1.017,0.051,45.488,-11.768,2.5,2.323,-0.324,-0.904,-0.306,7.073,-2.378,-1.585,0,-0.013,0.055,-0.972,5.793,-5.854,0.122,0,0.214,0.056,-1.069,-16.037,-21.159,-22.866,292.637,-0.781,-0.317,0.42,-53.72,-118.902,23.049,2510.413,28,1,1
-0.253,-1.017,0.051,44.024,-7.5,-12.073,2.323,-0.324,-0.904,-0.306,15.183,-3.78,-3.78,0,-0.013,0.055,-0.972,2.012,-1.22,-0.427,0,0.235,-0.006,-1.04,-22.134,-8.354,-37.622,292.637,-0.12,-0.229,0.07,169.695,-37.439,17.317,2510.413,135,1,1
-0.231,-0.781,0.182,8.171,1.22,-20.793,2.323,-0.287,-0.861,-0.221,5.244,-2.012,-0.488,0,0.011,0.08,-1.019,-2.866,6.829,0.122,0,0.235,-0.006,-1.04,-10.976,22.866,-18.537,292.637,-0.12,-0.229,0.07,61.829,40.671,9.695,2510.413,19,1,1
-0.23,-0.978,0.078,-42.439,6.768,-4.146,2.323,-0.347,-0.899,-0.304,-24.817,9.451,4.695,0,0.003,0.08,-0.971,-4.634,10.427,0.976,0,0.135,-0.017,-0.921,-8.11,2.378,7.134,292.637,-0.813,-0.194,1.219,38.415,17.317,0.366,2510.413,-134,1,1
-0.23,-0.978,0.078,-16.037,0.732,7.317,2.323,-0.347,-0.899,-0.304,-26.707,11.951,1.341,0,0.003,0.08,-0.971,3.476,3.232,1.89,0,0.139,0.156,-0.975,14.207,-7.378,14.817,292.637,-0.67,-0.184,0.995,-2.073,-45.976,-0.488,2510.413,-120,1,1
-0.248,-1.043,0.03,15.183,-2.744,6.951,2.323,-0.343,-0.9,-0.362,-13.171,5.976,-0.732,0,0.001,0.055,-0.923,5.366,0.366,1.159,0,0.139,0.156,-0.975,11.28,-8.963,3.11,292.637,-0.67,-0.184,0.995,-11.951,-25.732,-5.366,2510.413,-145,1,1
-0.248,-1.043,0.03,19.634,-2.805,-0.366,2.323,-0.289,-0.838,-0.299,2.317,0.549,-4.268,0,0.001,0.055,-0.923,3.841,-0.976,0.488,0,0.199,0.043,-1.092,1.037,-12.378,4.756,292.637,-0.518,-0.191,0.869,10.366,-7.317,-1.098,2510.413,117,1,1
-0.2,-0.913,0.099,-1.89,1.585,-8.72,2.323,-0.289,-0.838,-0.299,-4.512,3.354,-4.512,0,0.023,0.064,-0.987,0.976,-0.183,0.305,0,0.199,0.043,-1.092,12.378,-21.646,9.268,292.637,-0.518,-0.191,0.869,14.146,2.866,-4.268,2510.413,-24,1,1
-0.195,-0.941,0.059,-18.841,4.024,0,2.323,-0.305,-0.892,-0.351,-11.89,6.28,-3.659,0,0.029,0.072,-1.025,-1.524,2.5,0.488,0,0.216,0.004,-1.092,12.5,23.78,3.963,292.637,-0.628,-0.181,0.969,2.195,13.171,-9.268,2510.413,-45,1,1
-0.195,-0.941,0.059,-6.524,0.488,10.793,2.323,-0.305,-0.892,-0.351,-9.024,3.476,-0.915,0,0.029,0.072,-1.025,-1.037,1.037,0.183,0,0.165,0.022,-1.048,19.451,9.39,11.098,292.637,-0.628,-0.181,0.969,-15.549,19.512,-12.988,2510.413,-81,1,1
-0.241,-0.997,0.034,4.878,-2.256,13.476,2.323,-0.324,-0.916,-0.393,5.549,-4.756,2.012,0,0.017,0.065,-0.945,0,-0.915,-0.183,0,0.165,0.022,-1.048,16.159,-5.244,9.878,292.637,-0.614,-0.253,0.868,-5.61,12.561,-5.183,2510.413,-178,1,1
-0.241,-0.997,0.034,3.232,-2.256,8.598,2.323,-0.295,-0.841,-0.314,12.317,-8.963,2.134,0,0.017,0.065,-0.945,-0.061,-1.89,-0.305,0,0.187,-0.022,-1.072,5.976,3.171,3.415,292.637,-0.602,-0.234,0.842,-3.659,12.073,-3.171,2510.413,-59,1,1
-0.242,-1.011,0.044,-2.988,2.073,1.098,2.323,-0.295,-0.841,-0.314,10.427,-9.146,2.866,0,0,0.064,-0.928,-2.012,-1.341,-0.183,0,0.165,-0.032,-1.04,1.159,8.11,0.366,292.637,-0.602,-0.234,0.842,-9.878,15.183,-8.902,2510.413,145,1,1
-0.25,-1.026,0.078,1.89,0.793,3.415,2.323,-0.31,-0.865,-0.29,5.366,-5.915,2.744,0,-0.007,0.071,-0.975,-0.671,-2.439,-0.122,0,0.165,-0.032,-1.04,3.963,-17.195,5.976,292.637,-0.632,-0.273,0.835,-13.659,17.927,-12.866,2510.413,132,1,1
-0.25,-1.026,0.078,7.683,-0.183,3.415,2.323,-0.31,-0.865,-0.29,3.476,-3.415,1.159,0,-0.007,0.071,-0.975,0.915,-4.024,-0.244,0,0.182,-0.045,-1.018,11.341,-3.537,0.183,292.637,-0.632,-0.273,0.835,-9.451,17.561,-11.098,2510.413,185,1,1
-0.253,-0.974,0.087,6.341,-0.244,0,2.323,-0.33,-0.909,-0.308,9.39,-6.22,-0.366,0,0.004,0.074,-0.981,1.646,-3.902,-0.183,0,0.182,-0.045,-1.018,1.646,11.28,2.744,292.637,-0.653,-0.301,0.814,-6.159,3.963,-3.72,2510.413,177,1,1
-0.232,-0.953,0.05,-7.805,2.439,-3.659,2.323,-0.317,-0.871,-0.276,8.049,-6.951,0.793,0,0.005,0.07,-0.958,1.28,-0.366,0.427,0,0.186,-0.039,-1.059,3.72,8.598,-2.317,292.637,-0.646,-0.285,0.828,4.878,-1.646,3.902,2510.413,197,1,1
-0.232,-0.953,0.05,-6.402,2.866,-2.134,2.323,-0.317,-0.871,-0.276,1.768,-3.78,0.793,0,0.005,0.07,-0.958,1.098,1.951,0.61,0,0.186,-0.038,-1.069,3.78,5.061,-1.951,292.637,-0.646,-0.285,0.828,5.244,-3.354,3.293,2510.413,215,1,1
-0.236,-0.98,0.053,-1.402,2.805,0,2.323,-0.318,-0.867,-0.279,-7.866,2.012,-0.488,0,-0.002,0.07,-0.964,0.793,2.622,0.732,0,0.186,-0.038,-1.069,-6.829,3.354,-5,292.637,-0.634,-0.272,0.837,2.5,1.22,2.439,2510.413,-5,1,1
-0.236,-0.98,0.053,3.232,2.5,1.28,2.323,-0.323,-0.888,-0.308,-11.037,3.171,-0.427,0,-0.002,0.07,-0.964,0.366,2.195,0.61,0,0.188,-0.042,-1.042,-3.902,9.939,-4.207,292.637,-0.636,-0.265,0.824,0.305,3.476,1.037,2510.413,17,1,1
-0.251,-0.993,0.076,1.524,2.073,0.061,2.323,-0.323,-0.888,-0.308,-7.988,1.707,0,0,0.004,0.068,-0.969,0.183,1.829,0.549,0,0.188,-0.042,-1.042,2.622,-1.22,0.183,292.637,-0.636,-0.265,0.824,-0.793,5,0.427,2510.413,-125,1,1
-0.243,-0.988,0.049,-4.085,1.341,-2.195,2.323,-0.324,-0.881,-0.323,-5.976,0.549,0.366,0,0.012,0.067,-0.962,0.671,0.793,0.488,0,0.198,-0.035,-1.034,0.793,2.744,0.854,292.637,-0.643,-0.262,0.823,-1.829,6.098,-1.037,2510.413,-401,1,1
-0.243,-0.988,0.049,-3.232,1.159,-2.317,2.323,-0.324,-0.881,-0.323,-4.268,-0.122,0.305,0,0.012,0.067,-0.962,1.829,0.488,0.488,0,0.201,-0.024,-1.042,0,-1.646,1.524,292.637,-0.643,-0.262,0.823,-3.659,6.951,-2.073,2510.413,217,1,1
-0.227,-0.963,0.051,-2.256,0.671,-0.976,2.323,-0.32,-0.881,-0.325,-1.524,0.183,-1.463,0,0.011,0.067,-0.973,1.159,-0.305,0.244,0,0.192,-0.015,-1.043,-6.037,13.476,-3.293,292.637,-0.662,-0.282,0.824,-5.976,13.902,-3.841,2510.413,474,1,1
-0.24,-0.975,0.054,-0.488,0.427,0.61,2.323,-0.32,-0.881,-0.325,0.61,-1.585,-0.122,0,0.006,0.07,-0.971,0.549,-0.183,0.244,0,0.192,-0.015,-1.043,2.439,-9.573,5,292.637,-0.667,-0.286,0.789,-2.683,15,-2.866,2510.413,19,1,1
-0.24,-0.975,0.054,1.098,0.549,1.28,2.323,-0.325,-0.879,-0.316,1.524,-2.683,0.976,0,0.006,0.07,-0.971,0.305,0,0.305,0,0.207,-0.024,-1.055,0,-0.793,2.439,292.637,-0.667,-0.286,0.789,-2.927,12.256,-3.598,2510.413,-146,1,1
-0.241,-0.996,0.059,1.159,0.549,0.732,2.323,-0.325,-0.879,-0.316,2.5,-2.439,0.366,0,0.004,0.068,-0.966,0.671,-0.61,0.183,0,0.207,-0.024,-1.055,2.866,9.451,1.28,292.637,-0.685,-0.298,0.778,0.915,2.256,1.159,2510.413,-78,1,1
-0.241,-0.996,0.059,0.854,0.488,-0.244,2.323,-0.324,-0.877,-0.31,3.72,-2.744,-0.122,0,0.004,0.065,-0.964,0.305,-1.098,0.061,0,0.208,-0.028,-1.036,2.927,4.207,0.732,327.124,-0.679,-0.293,0.784,-0.793,-1.402,1.098,2555.043,98,1,1
-0.231,-0.985,0.06,0.488,0.183,-0.976,2.323,-0.324,-0.877,-0.31,2.927,-2.744,0.122,0,0.004,0.065,-0.964,0.061,-0.427,0.122,0,0.216,-0.032,-1.035,4.695,-2.317,2.134,327.124,-0.679,-0.293,0.784,0.854,-1.768,2.5,2555.043,228,1,1
-0.228,-0.97,0.06,0.671,0.61,-1.463,2.323,-0.319,-0.874,-0.301,2.195,-2.073,-0.61,0,0,0.067,-0.965,-0.122,-0.183,0.244,0,0.216,-0.032,-1.035,0.671,-2.378,1.829,327.124,-0.674,-0.29,0.792,0.122,-0.61,1.524,2555.043,289,1,1
-0.228,-0.97,0.06,1.28,0.976,-0.427,2.323,-0.321,-0.88,-0.298,0.793,-1.159,-0.549,0,0,0.067,-0.965,0.061,-0.244,0.244,0,0.209,-0.043,-1.042,1.524,3.841,-0.061,327.124,-0.674,-0.29,0.792,-0.549,1.098,-0.366,2555.043,-373,1,1
-0.238,-0.979,0.066,0.793,0.793,-0.122,2.323,-0.321,-0.88,-0.298,-0.305,-0.854,-0.366,0,0.002,0.072,-0.968,0,0.244,0.244,0,0.209,-0.043,-1.042,4.207,-3.72,1.28,327.124,-0.678,-0.289,0.791,1.22,2.317,-0.427,2555.043,-198,1,1
-0.238,-0.979,0.066,0.793,0.488,-0.427,2.323,-0.327,-0.882,-0.302,-1.463,-0.549,-0.488,0,0.002,0.072,-0.968,0.061,0.183,0.244,0,0.208,-0.039,-1.046,-2.378,0.732,0.488,327.124,-0.679,-0.291,0.788,0.854,0.244,0.305,2555.043,412,1,1
-0.236,-0.98,0.063,0,0.671,-0.549,2.323,-0.327,-0.882,-0.302,-0.976,-0.61,-0.366,0,0.007,0.072,-0.971,0.244,0.61,0.305,0,0.208,-0.031,-1.044,0.61,-3.659,0.854,327.124,-0.679,-0.291,0.788,3.354,-0.122,1.829,2555.043,252,1,1
-0.236,-0.98,0.063,-2.256,0.976,-0.976,2.323,-0.325,-0.878,-0.306,-2.439,0.183,-0.61,0,0.007,0.071,-0.968,0.366,0.976,0.427,0,0.208,-0.031,-1.044,-2.683,3.72,-0.549,327.124,-0.678,-0.284,0.794,2.012,-0.549,1.098,2555.043,305,1,1
-0.229,-0.987,0.057,-0.732,0.549,-0.854,2.323,-0.323,-0.88,-0.311,-2.012,0.244,-0.671,0,0.007,0.071,-0.968,0.427,0.976,0.427,0,0.209,-0.036,-1.039,2.134,-4.085,1.463,327.124,-0.678,-0.284,0.794,0.549,0.732,0.488,2555.043,-50,1,1
-0.227,-0.979,0.062,0.854,0.732,-1.159,2.323,-0.323,-0.88,-0.311,-2.073,0.061,-0.61,0,0.004,0.07,-0.965,0.244,0.366,0.305,0,0.209,-0.036,-1.039,-5.061,3.902,-0.549,327.124,-0.675,-0.283,0.787,0.549,1.585,0.488,2555.043,-130,1,1
-0.227,-0.979,0.062,-0.183,0.549,-1.098,2.323,-0.322,-0.88,-0.31,-0.976,-0.427,-0.488,0,0.004,0.07,-0.965,0.305,0.122,0.305,0,0.21,-0.034,-1.04,0.976,-1.098,0.854,327.124,-0.679,-0.285,0.785,-0.305,1.22,-0.061,2555.043,-171,1,1
-0.228,-0.978,0.063,-0.122,0.793,-0.488,2.323,-0.322,-0.88,-0.31,0.61,-1.159,-0.244,0,0.007,0.071,-0.967,0.183,0.244,0.305,0,0.21,-0.034,-1.04,-1.159,-0.976,1.098,327.124,-0.679,-0.285,0.785,0.549,0.854,0.061,2555.043,-167,1,1
-0.23,-0.978,0.073,0.183,0.305,-0.61,2.323,-0.321,-0.879,-0.306,-1.768,-0.366,-0.488,0,0.005,0.072,-0.969,0.366,0.305,0.366,0,0.209,-0.027,-1.04,0.854,-3.598,2.317,327.124,-0.68,-0.286,0.789,0.732,0.427,0,2555.043,118,1,1
-0.23,-0.978,0.073,-1.037,0.183,-0.854,2.323,-0.322,-0.883,-0.31,-0.549,-0.61,-0.488,0,0.005,0.072,-0.969,0.122,0.183,0.183,0,0.211,-0.029,-1.045,1.646,3.659,-0.244,327.124,-0.68,-0.286,0.789,0,-0.305,-0.122,2555.043,89,1,1
-0.224,-0.982,0.05,-1.89,0.366,-0.671,2.323,-0.322,-0.883,-0.31,0.61,-1.098,-0.366,0,0.008,0.073,-0.967,-0.122,-0.183,0.122,0,0.211,-0.029,-1.045,-2.256,-0.732,0.915,327.124,-0.676,-0.284,0.791,0.549,0.549,0.305,2555.043,187,1,1
-0.224,-0.982,0.05,-1.768,0.793,-0.366,2.323,-0.32,-0.875,-0.306,0.549,-1.402,-0.183,0,0.008,0.073,-0.967,0,0.122,0.183,0,0.206,-0.036,-1.042,0.183,-1.402,0.549,327.124,-0.682,-0.286,0.792,0.061,1.524,-0.244,2555.043,205,1,1
-0.226,-0.987,0.052,-0.61,1.28,-0.244,2.323,-0.321,-0.878,-0.31,-2.988,0.244,-0.671,0,0.008,0.073,-0.966,0.976,0.671,0.488,0,0.206,-0.032,-1.042,0.244,-0.61,0.671,327.124,-0.682,-0.286,0.792,-0.549,1.646,-0.427,2555.043,105,1,1
-0.226,-0.987,0.052,1.098,1.28,-0.305,2.323,-0.321,-0.878,-0.31,-2.927,0.488,-0.793,0,0.005,0.073,-0.968,0.549,0.366,0.366,0,0.206,-0.032,-1.042,2.866,-0.061,0.671,327.124,-0.679,-0.291,0.782,-0.61,1.037,0.244,2555.043,72,1,1
-0.23,-0.973,0.078,-0.122,0.671,-0.793,2.323,-0.321,-0.883,-0.313,-1.098,-0.244,-0.549,0,0.005,0.073,-0.968,0.305,0,0.244,0,0.206,-0.03,-1.042,-1.402,-1.28,1.707,327.124,-0.679,-0.291,0.782,0.305,0.305,3.232,2555.043,-85,1,1
-0.228,-0.985,0.06,-2.195,0.61,-1.22,2.323,-0.321,-0.883,-0.313,0.732,-1.463,-0.061,0,0.006,0.074,-0.967,0.244,0.061,0.244,0,0.206,-0.03,-1.042,2.195,2.5,4.512,327.124,-0.679,-0.281,0.786,0.305,0.122,4.695,2555.043,-14,1,1
-0.228,-0.985,0.06,-1.463,1.463,-1.524,2.323,-0.321,-0.878,-0.307,0.122,-1.22,-0.122,0,0.006,0.074,-0.967,0.732,0.122,0.427,0,0.201,-0.053,-1.046,3.598,-4.268,7.988,327.124,-0.681,-0.274,0.787,-0.427,0.183,3.476,2555.043,25,1,1
-0.221,-0.991,0.058,-0.305,1.402,-1.037,2.323,-0.32,-0.878,-0.312,-0.854,-0.183,-0.793,0,0.008,0.073,-0.965,0.732,0.549,0.549,0,0.201,-0.026,-1.044,-0.488,-2.622,1.524,327.124,-0.681,-0.274,0.787,0,0.488,0.061,2555.043,-56,1,1
-0.221,-0.991,0.058,-0.488,0.61,-1.159,2.323,-0.32,-0.878,-0.312,-0.488,0.183,-1.341,0,0.01,0.071,-0.97,0.244,-0.061,0.244,0,0.201,-0.026,-1.044,-0.671,1.159,-0.488,327.124,-0.687,-0.282,0.796,-2.256,0.122,0.427,2555.043,12,1,1
-0.214,-0.974,0.061,-0.976,0.671,-1.28,2.323,-0.316,-0.88,-0.314,-0.854,-0.366,-0.915,0,0.01,0.071,-0.97,0.244,0,0.244,0,0.2,-0.039,-1.041,-0.793,-2.744,-0.122,327.124,-0.687,-0.282,0.796,-5.854,1.28,1.951,2555.043,135,1,1
-0.219,-0.975,0.058,-0.549,0.976,0.305,2.323,-0.317,-0.879,-0.31,-1.037,-0.976,-0.183,0,0.006,0.073,-0.97,0.183,0.488,0.305,0,0.196,-0.043,-1.047,-1.037,0.732,-0.61,327.124,-0.683,-0.291,0.78,-1.768,3.72,-0.183,2555.043,100,1,1
-0.229,-0.991,0.065,0.427,0.915,0.854,2.323,-0.317,-0.879,-0.31,-1.28,-1.037,0.122,0,0.003,0.076,-0.963,0.366,0.671,0.366,0,0.196,-0.043,-1.047,-1.951,-0.366,1.585,327.124,-0.688,-0.294,0.779,0.427,3.415,-0.671,2555.043,-14,1,1
-0.229,-0.991,0.065,-0.549,0.671,-0.305,2.323,-0.319,-0.879,-0.31,-1.585,-0.671,0,0,0.003,0.076,-0.963,0.61,0.305,0.366,0,0.191,-0.04,-1.049,1.463,0.183,1.524,327.124,-0.688,-0.294,0.779,1.159,2.134,0.976,2555.043,38,1,1
-0.218,-0.985,0.056,-0.976,0.61,-1.037,2.323,-0.317,-0.878,-0.315,-1.402,-0.061,-0.793,0,0.006,0.075,-0.964,0.549,0,0.305,0,0.196,-0.037,-1.042,1.463,0.122,0.549,327.124,-0.689,-0.283,0.775,0.671,1.037,0.549,2555.043,-43,1,1
-0.218,-0.985,0.056,-0.854,0.732,-0.976,2.323,-0.317,-0.878,-0.315,-1.22,-0.061,-0.854,0,0.006,0.075,-0.964,0.488,-0.122,0.244,0,0.196,-0.037,-1.042,-1.402,2.378,-0.366,327.124,-0.694,-0.283,0.777,0.915,0.488,0,2555.043,121,1,1
-0.211,-0.977,0.055,-1.037,0.732,-0.732,2.323,-0.315,-0.879,-0.318,-0.732,-0.122,-0.976,0,0.011,0.073,-0.972,0.854,0.061,0.305,0,0.203,-0.034,-1.039,0.122,0.366,0.244,327.124,-0.694,-0.283,0.777,0.549,-0.305,0.305,2555.043,363,1,1
-0.218,-0.979,0.061,-0.915,0.61,0.427,2.323,-0.315,-0.879,-0.318,-1.159,-0.305,-0.61,0,0.009,0.073,-0.969,1.098,0.366,0.427,0,0.203,-0.034,-1.039,0.061,2.256,0,327.124,-0.69,-0.287,0.781,1.22,-1.037,1.098,2555.043,213,1,1
-0.218,-0.979,0.061,-0.732,0.488,0.366,2.323,-0.314,-0.88,-0.317,-0.915,-0.671,-0.427,0,0.009,0.073,-0.969,1.037,0.061,0.305,0,0.206,-0.031,-1.045,-0.732,3.659,-1.22,327.124,-0.69,-0.287,0.781,2.134,-0.61,1.646,2555.043,-211,1,1
-0.22,-0.983,0.056,-0.305,0.427,0.244,2.323,-0.314,-0.88,-0.317,-0.305,-1.037,-0.244,0,0.005,0.074,-0.965,0.732,-0.061,0.305,0,0.206,-0.031,-1.045,-0.976,1.951,-0.671,327.124,-0.683,-0.271,0.777,1.402,-0.488,0.854,2555.043,-419,1,1
-0.22,-0.983,0.056,-0.305,0.549,0.061,2.323,-0.316,-0.878,-0.314,0.549,-1.829,0.244,0,0.005,0.074,-0.965,0.488,-0.244,0.305,0,0.203,-0.04,-1.044,1.037,0.671,-0.366,327.124,-0.683,-0.271,0.777,-1.707,0.122,-2.561,2555.043,-132,1,1
-1.026,0.135,-0.066,-0.793,0.854,1.28,0,-0.972,0.313,0.134,2.012,1.951,-5.061,0,0.092,0.931,0.318,1.28,-3.049,-0.366,484.474,-0.527,0.041,-0.929,2.439,10.061,-0.671,759.922,-0.943,-0.285,0.073,-33.659,-12.988,-1.768,2099.746,566,1,0
-1.023,0.129,-0.068,-1.28,1.829,-1.098,0,-0.972,0.313,0.134,0.732,2.378,-2.805,0,0.092,0.931,0.318,1.28,-3.049,-0.366,484.474,-0.527,0.041,-0.929,4.085,6.951,-0.366,759.922,-0.931,-0.325,0.047,-14.756,-0.061,2.744,2099.746,467,1,0
-1.023,0.129,-0.068,-1.28,2.012,-2.195,0,-0.966,0.317,0.128,3.963,-1.768,-0.549,0,0.104,0.931,0.325,0.366,-6.22,-1.341,484.474,-0.526,0.037,-0.929,4.817,4.146,0.732,759.922,-0.931,-0.325,0.047,10.671,9.329,9.085,2099.746,-268,1,0
-1.023,0.113,-0.078,-3.415,2.012,-2.744,0,-0.966,0.317,0.128,5.488,-4.024,0.976,0,0.104,0.931,0.325,-3.354,-8.293,-2.317,484.474,-0.526,0.037,-0.929,4.634,5.122,1.037,759.922,-0.974,-0.307,0.105,24.756,16.646,13.78,2099.746,-20,1,0
-1.02,0.103,-0.087,-1.951,1.524,-0.915,0,-0.964,0.316,0.118,4.146,-3.232,2.5,0,0.091,0.915,0.322,-2.561,-10.732,-2.805,484.474,-0.533,0.028,-0.923,4.329,-1.159,0.915,759.922,-0.974,-0.307,0.105,27.134,20.122,14.634,2099.746,-22,1,0
-1.02,0.103,-0.087,-18.841,-1.707,6.707,0,-0.964,0.316,0.118,5.549,-2.622,2.256,0,0.091,0.915,0.322,-1.707,-11.829,-4.451,484.474,-0.534,0.027,-0.916,4.634,-2.073,1.037,759.922,-0.997,-0.283,0.165,17.866,21.098,10.976,2099.746,153,1,0
-1.021,0.113,-0.061,-27.622,-9.878,17.561,0,-0.953,0.3,0.121,13.963,-0.305,-0.61,0,0.102,0.889,0.32,-3.293,-12.683,-5,484.474,-0.534,0.027,-0.916,5.183,-4.329,4.085,759.922,-0.997,-0.283,0.165,4.878,23.049,4.756,2099.746,108,1,0
-1.021,0.113,-0.061,-10.183,-4.878,13.963,0,-0.933,0.348,0.117,10.61,10.366,-5.915,0,0.102,0.889,0.32,-4.512,-15.976,-2.683,484.474,-0.595,0.008,-0.894,7.622,-5.366,3.841,759.922,-0.988,-0.291,0.186,13.841,26.829,-4.512,2099.746,118,1,0
-1.037,0.178,-0.041,-11.768,1.28,6.341,0,-0.933,0.348,0.117,7.744,14.146,-5.915,0,0.128,0.91,0.343,13.171,-20.488,0.488,484.474,-0.595,0.008,-0.894,11.89,-4.939,7.317,759.922,-0.982,-0.271,0.195,16.585,25.427,-0.671,2099.746,116,1,0
-1.016,0.16,-0.06,-2.073,1.524,1.159,0,-0.981,0.392,0.102,5.732,3.841,0.732,0,0.084,0.912,0.385,3.537,-13.72,-4.573,484.474,-0.619,0.014,-0.865,14.878,-1.098,10.122,759.922,-0.982,-0.271,0.195,5.793,25.61,10.183,2099.746,-73,1,0
-1.016,0.16,-0.06,-0.244,1.524,0.305,0,-0.922,0.376,0.13,14.756,-7.5,-0.488,0,0.084,0.912,0.385,-0.244,-13.354,-5.732,484.474,-0.618,0.028,-0.842,16.829,-3.598,6.768,759.922,-0.958,-0.347,0.258,-7.622,21.768,34.512,2099.746,182,1,0
-1.017,0.161,-0.058,0.183,3.049,-3.72,0,-0.922,0.376,0.13,12.073,-0.305,-4.39,0,0.113,0.894,0.354,8.841,-7.866,-1.28,484.474,-0.618,0.028,-0.842,12.744,-5.976,8.232,759.922,-0.962,-0.319,0.536,28.72,3.232,43.72,2099.746,112,1,0
-1.017,0.161,-0.058,1.463,3.78,-6.89,0,-0.937,0.377,0.122,10.305,-0.122,-7.134,0,0.122,0.917,0.319,8.72,-7.622,0.183,484.474,-0.634,0.024,-0.803,12.134,-2.256,6.524,759.922,-0.962,-0.319,0.536,-18.598,1.768,33.78,2099.746,115,1,0
-1.021,0.155,-0.066,-1.951,5.549,-11.159,0,-0.937,0.377,0.122,3.476,0.793,-8.72,0,0.122,0.917,0.319,6.768,-6.646,0.732,484.474,-0.646,0.041,-0.805,6.585,10.061,3.293,759.922,-1.03,-0.409,0.517,-74.878,-16.89,11.89,2099.746,218,1,0
-1.029,0.127,-0.071,-1.646,6.402,-15.915,0,-0.938,0.349,0.097,3.293,0.671,-6.402,0,0.148,0.912,0.299,5.915,-3.598,1.524,484.474,-0.646,0.041,-0.805,11.28,11.402,3.476,759.922,-1.048,-0.478,0.371,-3.11,-54.207,-11.463,2099.746,424,1,0
-1.029,0.127,-0.071,1.098,6.707,-18.841,0,-0.958,0.333,0.089,-1.098,1.28,-3.963,0,0.136,0.898,0.262,10.305,-1.768,5.793,484.474,-0.65,0.017,-0.782,10.366,16.829,1.159,759.922,-1.048,-0.478,0.371,4.573,-62.012,-31.098,2099.746,-180,1,0
-1.056,0.142,-0.074,-0.305,10.305,-24.695,0,-0.958,0.333,0.089,-3.659,0.61,-4.939,0,0.136,0.898,0.262,18.232,-2.012,7.256,484.474,-0.65,0.017,-0.782,7.744,14.573,-3.11,759.922,-0.939,-0.365,0.335,-15.305,-64.939,-50.915,2099.746,-407,1,0
-1.236,0.226,0.042,-9.695,17.439,-48.476,0,-0.97,0.32,0.091,-5.183,-2.317,-6.402,0,0.113,0.989,0.204,20.427,-0.793,6.829,484.474,-0.599,0.005,-0.798,11.524,32.805,2.988,759.922,-0.939,-0.365,0.335,-52.256,-56.646,-71.463,2099.746,-77,1,0
-1.236,0.226,0.042,-54.085,26.951,-75.122,0,-1.07,0.293,0.125,-0.976,-7.073,7.927,0,0.113,0.989,0.204,13.598,1.098,6.22,484.474,-0.593,-0.038,-0.751,20.122,22.134,11.646,759.922,-0.657,-0.619,0.332,-78.598,-42.256,-87.622,2099.746,42,1,0
-1.005,-0.204,0.152,-94.268,22.683,-82.622,0,-1.07,0.293,0.125,-1.768,-8.78,29.268,0,0.089,1.022,0.015,5.549,0.244,-4.634,484.474,-0.593,-0.038,-0.751,39.939,30.488,21.037,759.922,-0.657,-0.619,0.332,-31.89,-25.671,-83.78,2099.746,92,1,0
-1.005,-0.204,0.152,-111.951,2.805,-69.756,0,-1.155,0.295,0.049,-13.171,-8.049,51.098,0,0.228,0.854,0.179,-37.622,13.598,-28.598,484.474,-0.447,-0.084,-0.484,68.963,32.622,22.988,759.922,-0.362,-0.36,0.275,133.049,-33.415,-37.378,2099.746,121,1,0
-0.599,-0.321,-0.601,-26.463,6.951,22.012,0,-0.717,0.144,0.132,-31.768,-23.11,22.927,0,0.228,0.854,0.179,-76.951,36.159,-22.561,484.474,-0.072,-0.11,-0.668,53.11,67.439,4.085,759.922,-0.744,-0.179,0.169,119.756,-38.78,9.939,2099.746,116,1,0
-1.036,0.067,-0.32,65.244,14.085,28.78,0,-0.717,0.144,0.132,-15.427,-17.683,-25.976,0,0.04,0.473,0.112,81.159,4.695,13.963,484.474,-0.072,-0.11,-0.668,38.415,90.732,2.866,759.922,-0.744,-0.179,0.169,78.049,-57.195,45.244,2099.746,75,1,0
-1.318,0.13,0.021,-18.598,30,-7.439,0,-0.768,0.366,0.223,5.122,-52.439,-57.5,0,0.103,1.064,0.395,101.829,-2.378,8.11,484.474,-0.274,-0.265,-0.839,6.768,74.817,-24.207,759.922,-1.148,-0.237,0.043,-130.305,-34.756,-16.585,2099.746,64,1,0
-1.318,0.13,0.021,-16.89,37.927,-45.915,0,-0.811,0.764,0.293,39.451,-28.049,-34.634,0,0.103,1.064,0.395,97.439,21.402,-20,484.474,-0.188,-0.15,-0.856,-43.902,26.707,-38.659,759.922,-0.772,-0.381,0.305,1.463,-3.841,-31.341,2099.746,1,1,0
-1.06,-0.078,-0.214,-16.585,29.939,-84.695,0,-0.811,0.764,0.293,5.122,-8.537,-21.768,0,0.278,1.023,0.285,38.415,38.293,-0.244,484.474,-0.188,-0.15,-0.856,-54.39,64.878,-20.061,759.922,-0.772,-0.381,0.305,169.329,30.976,-22.622,2099.746,24,1,0
-1.06,-0.078,-0.214,-47.927,20.854,-95.61,0,-0.746,0.687,0.309,-66.89,-1.768,11.463,0,-0.011,0.859,0.135,-9.817,29.207,-13.902,484.474,-0.153,-0.102,-0.959,-37.805,70.976,7.805,759.922,-0.563,-0.1,0.869,319.634,-4.878,-24.878,2099.746,75,1,0
-0.889,-0.271,-0.347,-68.293,7.622,-112.073,0,-0.736,0.176,0.17,-78.232,43.537,11.402,0,-0.011,0.859,0.135,32.317,38.659,16.22,484.474,-0.277,0.17,-0.943,-26.646,69.146,40.61,759.922,-0.565,0.543,0.9,361.646,-31.829,3.354,2099.746,97,1,0
-0.681,-0.504,-0.346,-35.549,22.378,-96.341,0,-0.736,0.176,0.17,-37.378,83.537,0.183,0,-0.26,0.926,0.172,0.854,20.732,20.793,484.474,-0.277,0.17,-0.943,-23.537,44.024,3.963,759.922,-0.565,0.543,0.9,301.524,-23.232,60.427,2099.746,38,1,0
-0.681,-0.504,-0.346,13.963,41.524,-60.244,0,-0.885,0.167,0.355,-0.183,73.537,-5.549,0,0,0.863,0.364,71.829,-13.049,11.768,484.474,-0.282,0.096,-1.011,-34.634,46.463,-45.427,759.922,-0.665,0.563,0.196,-169.634,6.585,95.305,2099.746,29,1,1
-0.91,-0.463,-0.519,24.512,60.732,-50.671,0,-0.885,0.167,0.355,57.195,53.598,-21.707,0,0,0.863,0.364,53.841,-20.671,35.305,484.474,-0.322,0.019,-1.099,-11.098,72.317,-42.317,759.922,-0.615,-0.118,-0.848,-224.634,33.415,78.902,2099.746,35,1,1
-0.862,-0.811,-0.501,86.098,63.232,-80.427,0,-0.649,0.692,0.363,30.854,45.305,-93.232,0,0.016,0.476,0.33,107.561,-30.854,61.402,484.474,-0.322,0.019,-1.099,4.939,85.854,-16.341,759.922,-0.615,-0.118,-0.848,-26.098,92.012,83.72,2099.746,60,1,1
-0.862,-0.811,-0.501,120.549,73.537,-117.866,0,-0.371,0.429,0.208,-0.854,66.037,-105.976,0,0.016,0.476,0.33,198.049,-32.134,82.134,484.474,-0.138,-0.096,-1.131,70.305,56.951,2.683,759.922,-3.07,-0.635,1.104,73.537,142.5,-34.451,2099.746,60,1,1
-0.621,-0.84,-0.101,78.415,72.317,-175.488,0,-0.371,0.429,0.208,9.146,86.22,-133.781,0,0.124,0.307,-0.22,229.634,-48.72,85.976,484.474,-0.138,-0.096,-1.131,68.049,-16.707,5.305,759.922,-1.878,0.084,1.487,-208.476,-44.451,-123.72,2099.746,8,1,1
-0.621,-0.84,-0.101,39.024,51.22,-150.61,0,-0.522,-0.296,-0.242,-1.28,83.659,-176.037,0,0.213,0.288,-0.51,277.683,-78.841,94.451,484.474,0.501,-0.307,-2.219,136.524,-149.268,3.537,759.922,-1.878,0.084,1.487,-40.488,27.317,-49.634,2099.746,34,1,1
-0.823,-0.784,-0.792,24.39,30,-97.744,0,-0.479,-0.667,-0.366,33.963,123.415,-177.805,0,0.213,0.288,-0.51,214.39,-50.427,93.049,484.474,0.732,0.359,-0.939,-10.366,36.402,-166.342,759.922,-0.151,-0.591,0.326,-28.659,40.488,36.402,2099.746,25,1,1
-1.337,-1.221,-0.525,106.463,41.159,-56.768,0,-0.479,-0.667,-0.366,77.805,164.085,-162.622,0,0.401,0.282,-1.475,-3.049,-17.5,75.122,484.474,0.732,0.359,-0.939,5.366,128.842,-74.634,759.922,-0.151,-0.591,0.326,-40.183,55.122,23.354,2099.746,54,1,1
-1.337,-1.221,-0.525,154.329,11.524,-121.585,0,-0.867,-1.079,-0.339,92.317,129.695,-157.622,0,-0.213,-1.012,-2,364.695,-422.012,70.244,484.474,0.882,0.03,-0.43,-23.841,-232.195,74.756,759.922,-0.726,-0.499,0.744,-5.793,78.476,-32.317,2099.746,73,1,1
0.084,-1.394,0.086,212.134,-19.573,-155.244,0,-0.867,-1.079,-0.339,42.317,42.317,-192.317,0,-0.213,-1.012,-2,138.659,-61.341,-25.976,484.474,0.882,0.03,-0.43,-183.415,-135.366,-97.866,759.922,-0.726,-0.499,0.744,-16.463,7.134,-4.39,2099.746,103,1,1
0.922,-0.811,0.47,109.878,-2.622,-143.659,0,-0.604,-1.772,-1.215,134.634,70,-223.659,0,-0.091,-0.218,-2.712,45.183,-12.256,-26.768,11.139,-0.102,-0.244,-0.856,-140.427,2.5,-31.037,314.289,-0.622,-0.236,0.128,14.329,38.11,21.768,1184.242,135,1,1
0.922,-0.811,0.47,-9.268,18.476,-52.683,0,0.245,-2.087,-0.836,115.732,-48.902,-102.012,0,-0.091,-0.218,-2.712,79.939,-52.744,3.293,11.139,0.39,0.074,-1.994,-84.207,-95,-70.61,314.289,-2.221,-0.055,0.558,-0.305,110.793,24.939,1184.242,6,1,1
0.009,-0.837,0.208,-0.305,22.927,-41.524,0,0.245,-2.087,-0.836,35.732,2.012,-49.451,0,0.151,-0.385,-1.637,117.317,-1.829,-4.39,11.139,0.39,0.074,-1.994,140.915,-150.61,5.122,314.289,-2.221,-0.055,0.558,-7.622,116.707,63.598,1184.242,-9,1,1
0.009,-0.837,0.208,10.061,4.451,-66.585,0,-0.14,-1.121,-0.341,39.878,-58.354,-35.732,0,-0.082,0.128,-0.547,129.146,61.22,-47.439,11.139,0.504,0.492,-1.793,-91.89,211.281,-25.427,314.289,-0.977,0.1,0.286,-49.817,-7.927,160.183,1184.242,6,1,1
-0.032,-0.036,0.209,-29.573,-1.89,-93.293,0,0.012,-0.427,-0.203,-8.537,-4.512,-19.024,0,-0.082,0.128,-0.547,14.756,47.5,-46.524,11.139,0.143,0.203,-0.945,-9.878,-31.28,0.671,314.289,-0.268,-0.095,0.038,-21.646,-30.427,86.829,1184.242,-2,1,1
-0.032,-0.036,0.209,-63.293,1.524,-104.329,0,0.012,-0.427,-0.203,-12.012,23.049,-5.122,0,0.074,-0.159,-0.5,-0.976,-1.646,-1.646,11.139,0.143,0.203,-0.945,-73.841,35.976,-31.829,314.289,-0.268,-0.095,0.038,-4.512,-19.39,26.768,1184.242,93,1,1
0.161,0.193,0.109,-70,-0.671,-73.963,0,0.037,-0.33,-0.11,-16.159,18.11,15.976,0,0.074,-0.159,-0.5,-63.537,-31.159,16.524,11.139,0.19,0.036,-0.811,-70.793,53.72,-6.951,314.289,-0.909,-0.125,0.188,7.988,-2.561,-1.037,1184.242,61,1,1
0.282,0.044,0.073,-19.146,-10.366,-62.012,0,0.037,-0.33,-0.11,-47.988,-1.341,28.232,0,-0.122,-0.359,-0.566,-51.707,-19.878,22.439,11.139,0.19,0.036,-0.811,22.5,-7.439,1.28,314.289,-0.909,-0.125,0.188,19.634,28.171,-14.939,1184.242,77,1,1
0.282,0.044,0.073,-4.817,-20,-48.78,0,-0.085,-0.659,-0.003,-30,-8.598,30.488,0,-0.262,-0.123,-0.906,-25.427,-14.756,-7.561,11.139,0.319,0.123,-1.037,44.451,3.354,15.61,314.289,-1.245,0.009,0.309,5.732,58.354,-31.951,1184.242,-5,1,1
1.097,-0.395,-0.013,31.463,-16.646,-8.476,0,-0.14,-1.175,-0.508,-91.098,-8.476,17.134,0,-0.262,-0.123,-0.906,-38.354,-25.915,-13.841,11.139,0.405,0.081,-1.398,60.793,11.585,34.39,314.289,-1.091,0.112,0.144,-24.451,70.061,-49.268,1184.242,45,1,1
1.097,-0.395,-0.013,90.854,-35.976,44.939,0,-0.14,-1.175,-0.508,-127.012,8.598,6.098,0,-0.057,-0.159,-1.454,-46.341,-35.671,-10.061,11.139,0.405,0.081,-1.398,84.512,-61.22,35.122,314.289,-1.091,0.112,0.144,-26.829,46.098,-47.5,1184.242,26,1,1
-0.916,-1.351,-0.212,-120.976,-22.256,145.732,0,-0.404,-0.862,-0.598,-13.841,-23.049,34.451,0,-0.104,0,-0.782,-10.183,8.902,-2.988,11.139,0.198,0.031,-0.932,22.622,2.744,15.427,314.289,-0.997,-0.224,0.163,10.427,-38.171,-6.768,1184.242,59,1,1
-0.397,-1.381,-0.136,-97.5,-6.829,71.524,0,-0.272,-0.509,-0.152,-9.146,8.598,19.207,0,-0.104,0,-0.782,-19.512,34.207,-3.78,11.139,-0.052,-0.045,-0.937,-12.866,-0.732,41.28,314.289,-0.861,-0.234,0.193,1.646,-45.549,-14.878,1184.242,85,1,1
-0.397,-1.381,-0.136,-30.366,-2.134,16.28,0,-0.272,-0.509,-0.152,9.329,-9.329,21.768,0,-0.137,0.019,-0.686,-28.232,25.732,-5.915,11.139,-0.052,-0.045,-0.937,-36.646,7.744,12.622,314.289,-0.861,-0.234,0.193,-0.305,-44.085,-6.768,1184.242,-81,1,1
-0.072,-1.574,-0.07,16.585,-17.256,30.183,0,-0.441,-0.746,-0.343,-65,-4.878,34.085,0,-0.137,0.019,-0.686,-17.439,7.927,-5.61,11.139,0.054,-0.081,-1.032,-12.317,-28.659,-11.524,314.289,-0.897,-0.296,0.261,-0.549,-21.22,-1.159,1184.242,6,1,1
-0.072,-1.574,-0.07,38.72,-26.707,71.585,0,-0.441,-0.746,-0.343,-76.951,21.829,31.037,0,-0.191,0.062,-0.969,-9.268,-15.549,-3.232,11.139,0.054,-0.081,-1.032,10.183,-2.134,21.098,314.289,-0.897,-0.296,0.261,-1.707,8.78,-1.951,1184.242,112,1,1
-0.308,-1.263,-0.123,73.476,-25.183,54.939,0,-0.586,-0.965,-0.597,-1.098,29.451,-5.732,0,-0.191,0.062,-0.969,-6.89,-45.305,-2.622,11.139,0.107,-0.287,-1.137,71.951,-39.207,40.366,314.289,-0.964,-0.05,0.334,-1.28,35.671,-14.39,1184.242,72,1,1
-0.147,-0.762,0.125,61.463,-0.732,-37.5,0,-0.424,-0.822,-0.379,60.244,-6.28,-27.805,0,-0.108,0.096,-1.196,-4.695,-49.024,-3.659,11.139,0.107,-0.287,-1.137,121.89,-31.22,45.793,314.289,-0.964,-0.05,0.334,0.732,52.134,-41.768,1184.242,100,1,1
-0.147,-0.762,0.125,-16.829,4.207,-25.915,0,-0.424,-0.822,-0.379,114.939,-86.402,-16.037,0,0.042,-0.008,-1.111,-0.366,-12.378,1.098,11.139,0.033,-0.045,-0.931,75.549,-1.524,8.598,314.289,-1.35,-0.145,0.251,-5.671,50.793,-22.866,1184.242,87,1,1
-0.054,-0.889,-0.019,-67.988,0.122,-4.146,0,-0.366,-0.753,-0.255,53.354,-49.512,5.061,0,0.042,-0.008,-1.111,3.72,4.695,1.463,11.139,0.118,-0.192,-0.947,5.427,35.793,-7.073,314.289,-0.956,-0.248,0.027,-13.354,27.683,17.378,1184.242,-7,1,1
-0.07,-1.049,-0.14,-29.146,-5.305,4.878,2.323,-0.366,-0.753,-0.255,-7.378,0.793,8.049,0,-0.107,-0.004,-0.978,8.963,16.037,0.366,11.139,0.118,-0.192,-0.947,-22.256,19.878,-0.61,314.289,-0.956,-0.248,0.027,-8.049,0.061,29.146,1184.242,76,1,1
-0.07,-1.049,-0.14,5.854,-2.073,5.61,2.323,-0.462,-0.849,-0.318,-28.293,30.122,-23.841,0,-0.222,0.04,-0.898,2.744,5,0.061,11.139,0.136,-0.36,-1.032,-35.061,26.768,-8.354,314.289,-0.878,-0.215,0.054,-1.707,-14.939,14.512,1184.242,80,1,1
-0.059,-1.017,-0.046,18.049,2.073,5.671,2.323,-0.357,-0.934,-0.293,14.39,6.402,-22.683,0,-0.222,0.04,-0.898,-0.854,-1.037,-0.061,11.139,0.155,-0.197,-0.933,-5.915,-11.159,-7.561,314.289,-0.878,-0.215,0.054,0.61,-16.524,-3.171,1184.242,244,1,1
-0.059,-1.017,-0.046,20.061,4.024,4.634,2.323,-0.357,-0.934,-0.293,38.415,-19.39,-2.378,0,-0.154,-0.005,-0.903,-0.915,-3.415,-0.427,11.139,0.155,-0.197,-0.933,-29.024,-8.78,-13.293,314.289,-1.035,-0.273,0.132,1.585,-7.378,5.854,1184.242,-34,1,1
-0.06,-0.984,0.072,15.732,5.183,2.134,2.323,-0.318,-0.826,-0.151,23.902,-13.72,5.244,0,-0.154,-0.005,-0.903,-0.122,-0.671,-0.976,11.139,0.215,-0.29,-0.902,-50.427,-16.89,-18.598,314.289,-0.96,-0.239,0.136,5.549,-4.817,15.305,1184.242,147,1,1
-0.06,-0.984,0.072,4.268,5.854,-0.793,2.323,-0.318,-0.826,-0.151,2.927,-2.439,1.098,0,-0.157,0.001,-0.998,0.915,-2.256,0.305,11.139,0.215,-0.29,-0.902,-73.659,-11.402,-21.585,314.289,-0.96,-0.239,0.136,8.72,-5.427,29.207,1184.242,-106,1,1
-0.107,-0.975,0.052,-8.293,6.768,-2.195,2.323,-0.355,-0.883,-0.217,-25.244,17.195,-5.183,0,-0.157,0.001,-0.998,5.976,2.317,1.585,11.139,0.226,-0.23,-1.2,-68.78,-1.098,-8.476,314.289,-1.116,-0.099,0.209,6.524,-5.976,32.073,1184.242,-65,1,1
-0.158,-0.959,-0.02,-1.524,6.098,3.659,2.323,-0.411,-0.921,-0.318,-12.378,8.476,3.11,0,-0.122,0.052,-1.036,-0.671,4.085,1.524,11.139,0.151,0.02,-1.15,36.707,24.695,-17.195,314.289,-1.116,-0.099,0.209,4.146,-5.244,16.89,1184.242,54,1,1
-0.158,-0.959,-0.02,-0.183,5.793,5.244,2.323,-0.411,-0.921,-0.318,-11.707,-1.037,17.378,0,-0.04,-0.006,-0.962,2.134,12.927,1.341,11.139,0.151,0.02,-1.15,-18.72,0.793,-10.244,314.289,-1.051,-0.038,0.206,2.256,-4.39,2.622,1184.242,183,1,1
-0.166,-1.061,0.018,-10.793,3.659,11.037,2.323,-0.404,-0.764,-0.292,-10.427,-8.354,20.61,0,-0.04,-0.006,-0.962,3.78,20.366,1.341,11.139,0.158,-0.017,-1.094,-54.634,9.268,-3.415,314.289,-1.212,-0.24,0.277,-6.585,-30.793,-1.22,1184.242,-37,1,1
-0.166,-1.061,0.018,-8.293,-5.671,20.305,2.323,-0.396,-0.761,-0.342,-34.634,25.427,-5.732,0,-0.05,-0.014,-0.885,8.537,27.317,1.707,11.139,0.158,-0.017,-1.094,-47.805,1.646,-9.939,314.289,-1.212,-0.24,0.277,-2.195,-55.549,10.183,1184.242,150,1,1
-0.202,-1.196,-0.043,13.963,-16.829,31.768,2.323,-0.396,-0.761,-0.342,-15,40.305,-25.427,0,-0.05,-0.014,-0.885,17.073,36.159,1.768,11.139,0.214,0.053,-1.104,-38.537,-3.171,-6.28,314.289,-1.259,-0.265,0.656,5.976,-84.817,47.317,1184.242,-99,1,1
-0.125,-0.943,0.026,30.244,-5.427,-17.683,2.323,-0.329,-0.89,-0.448,-23.598,49.39,-24.573,0,-0.037,-0.03,-0.983,3.659,5.122,-0.183,11.139,0.214,0.053,-1.104,-47.561,1.463,-7.927,314.289,-1.259,-0.265,0.656,-16.463,-114.024,67.256,1184.242,324,1,1
-0.125,-0.943,0.026,16.341,-2.744,-32.012,2.323,-0.329,-0.89,-0.448,-27.378,28.659,-10.549,0,-0.066,-0.009,-1.035,-0.122,2.744,-0.244,11.139,0.23,-0.015,-1.009,-45.366,14.573,-9.39,314.289,-0.513,-0.097,1.106,-19.39,-153.171,37.988,1184.242,50,1,1
-0.114,-0.841,-0.039,-10.61,-0.366,-16.585,2.323,-0.331,-0.928,-0.451,2.5,-5.854,-2.134,0,-0.066,-0.009,-1.035,-4.268,-5.854,-0.976,11.139,0.129,-0.011,-0.914,-10.244,14.329,-22.073,314.289,-0.513,-0.097,1.106,197.561,-213.476,18.537,1184.242,-3,1,1
-0.114,-0.841,-0.039,1.159,1.28,1.768,2.323,-0.331,-0.928,-0.451,23.841,-17.622,5.061,0,-0.023,0.009,-1.009,-3.72,-7.988,0.122,11.139,0.129,-0.011,-0.914,-0.244,2.927,-16.707,314.289,-0.382,0.085,0.102,93.598,-256.342,-87.805,1184.242,-133,1,1
-0.191,-0.859,0.007,14.024,5.61,7.073,2.323,-0.356,-0.832,-0.319,21.89,-7.561,7.195,0,-0.023,0.009,-1.009,0.671,-1.22,1.402,11.139,0.105,0.091,-0.972,-31.829,0.488,-14.207,314.289,-0.486,0.064,0.153,-37.805,-231.524,-71.037,1184.242,391,1,1
-0.201,-1.048,0.125,-16.402,5.793,13.232,2.323,-0.361,-0.869,-0.422,-8.049,10.549,-6.585,0,-0.054,-0.009,-0.948,3.78,-0.976,3.171,11.139,0.19,0.164,-1.068,19.39,-23.232,12.317,314.289,-1.231,-0.25,1.604,-54.207,-100.915,26.341,1184.242,12,1,1
-0.156,-1.071,0.087,10.549,2.195,5.427,2.323,-0.361,-0.869,-0.422,6.646,3.659,-7.5,0,-0.054,-0.009,-0.948,-0.549,-6.463,2.5,11.139,0.24,0.232,-1.203,34.695,1.22,9.268,314.289,-0.075,-0.069,1.268,-61.89,-202.927,-18.049,1184.242,-740,1,1
-0.133,-0.868,0.092,15.976,-7.561,2.622,2.323,-0.333,-0.856,-0.42,25.244,-11.829,-2.683,0,0.012,-0.05,-1.03,-6.341,-9.146,-1.89,0,0.186,0.108,-1.019,106.098,-11.829,-5.488,153.843,-0.075,-0.069,1.268,-72.012,-69.085,-34.146,2119.256,-808,1,1
-0.133,-0.868,0.092,-7.073,-6.89,4.573,2.323,-0.333,-0.856,-0.42,24.512,-20.671,-1.037,0,0.018,-0.023,-1.058,-5.305,-1.341,-2.134,0,0.186,0.108,-1.019,-3.78,20.61,1.951,153.843,0.078,-0.275,0.987,-46.524,90.122,16.951,2119.256,1334,1,1
-0.17,-0.962,-0.021,-35.732,-6.646,8.902,2.323,-0.336,-0.834,-0.368,13.293,-19.756,1.585,0,0.018,-0.023,-1.058,-3.72,5.366,-1.585,0,0.209,-0.081,-1.046,-23.476,-38.293,17.927,153.843,0.078,-0.275,0.987,-17.256,81.037,6.646,2119.256,2047,1,1
-0.17,-0.962,-0.021,-41.402,-5.793,12.988,2.323,-0.357,-0.863,-0.329,-4.512,-6.646,5.793,0,-0.065,0,-0.965,-1.402,8.415,-0.915,0,0.209,-0.081,-1.046,-25.366,7.866,8.232,153.843,-0.412,-0.277,0.92,-11.341,-19.329,-6.402,2119.256,1062,1,1
-0.205,-1.172,-0.105,14.695,-2.378,7.439,2.323,-0.357,-0.863,-0.329,-6.463,-4.207,7.317,0,-0.125,0.015,-0.89,-2.805,-1.768,-0.976,0,0.116,-0.021,-1.032,23.476,-24.695,1.829,153.843,-0.188,-0.333,1.019,-13.598,-23.354,-7.988,2119.256,538,1,1
-0.227,-1.042,0.036,32.317,1.22,0,2.323,-0.375,-0.885,-0.295,4.695,-7.5,4.817,0,-0.125,0.015,-0.89,-4.329,-6.28,-1.22,0,0.177,-0.048,-0.994,21.951,-26.829,-3.598,153.843,-0.188,-0.333,1.019,-24.634,-8.659,-5.244,2119.256,278,1,1
-0.227,-1.042,0.036,30.976,3.537,-5.366,2.323,-0.37,-0.849,-0.233,26.707,-16.341,4.146,0,-0.095,0.013,-0.926,-4.146,-12.439,-0.61,0,0.177,-0.048,-0.994,13.049,29.207,-0.305,153.843,-0.171,-0.362,1.036,-13.476,11.098,-1.585,2119.256,169,1,1
-0.22,-0.908,0.143,23.963,4.207,-9.573,2.323,-0.37,-0.849,-0.233,24.268,-16.463,3.049,0,-0.095,0.013,-0.926,-3.049,-13.232,-0.305,0,0.131,-0.061,-1.016,22.317,11.585,-3.902,153.843,-0.216,-0.309,1.017,-4.634,5.549,0.732,2119.256,131,1,1
-0.22,-0.908,0.143,11.463,2.378,-9.939,2.323,-0.389,-0.836,-0.224,14.024,-13.537,2.073,0,-0.05,0.012,-1.016,-1.402,-9.146,0.061,0,0.131,-0.061,-1.016,24.085,-22.561,-5,153.843,-0.216,-0.309,1.017,12.378,-1.585,2.378,2119.256,-87,1,1
-0.183,-0.943,0.067,-17.439,0.854,4.024,2.323,-0.389,-0.836,-0.224,7.439,-8.902,0.976,0,-0.042,0.006,-1.036,4.451,4.573,1.22,0,0.192,-0.067,-1.088,-10.305,11.159,-2.988,153.843,-0.208,-0.278,1.076,3.476,-1.22,2.439,2119.256,-2048,1,1
-0.17,-1.006,-0.007,-21.463,4.512,1.402,2.323,-0.401,-0.864,-0.244,-2.683,1.646,-2.683,0,-0.042,0.006,-1.036,4.512,7.927,1.159,0,0.19,-0.004,-1.099,-9.695,5.854,-3.11,153.843,-0.208,-0.278,1.076,0.549,3.537,2.805,2119.256,-1457,1,1
-0.17,-1.006,-0.007,-19.329,8.11,-0.488,2.323,-0.374,-0.86,-0.297,-32.317,17.012,-2.744,0,-0.065,0.004,-0.968,3.049,10.915,1.098,0,0.19,-0.004,-1.099,-13.232,-2.439,-0.854,153.843,-0.221,-0.301,1.01,1.037,7.256,3.232,2119.256,276,1,1
-0.183,-1.01,0.028,-14.268,7.927,-1.646,2.323,-0.374,-0.86,-0.297,-33.232,14.146,-0.366,0,-0.065,0.004,-0.968,0.793,11.402,0.976,0,0.183,0.006,-1.066,-14.695,9.146,0.244,153.843,-0.25,-0.288,0.987,1.951,1.098,1.829,2119.256,-782,1,1
-0.183,-1.01,0.028,-6.402,5.183,-1.829,2.323,-0.37,-0.855,-0.361,-31.22,11.341,1.585,0,-0.061,-0.004,-0.938,-0.427,7.134,0.671,0,0.183,0.006,-1.066,-7.134,5.305,-5,153.843,-0.25,-0.288,0.987,-3.11,-5.549,-2.195,2119.256,-776,1,1
-0.189,-0.992,0.025,2.744,1.646,-0.366,2.323,-0.37,-0.855,-0.361,-23.963,9.573,2.012,0,-0.061,-0.004,-0.938,-0.305,2.988,0.549,0,0.175,0.002,-1,9.39,-0.915,-4.817,153.843,-0.209,-0.294,1.017,-5.549,-7.012,-4.024,2119.256,-438,1,1
-0.201,-0.994,0.018,7.561,-1.159,0.915,2.323,-0.375,-0.841,-0.394,-4.146,2.256,-0.854,0,-0.038,-0.006,-0.967,0.915,-1.768,0.122,0,0.17,0.002,-1.014,7.378,-3.537,-2.561,153.843,-0.209,-0.294,1.017,-8.293,-2.866,-3.171,2119.256,1029,1,1
-0.201,-0.994,0.018,1.341,-1.28,0.244,2.323,-0.378,-0.842,-0.394,1.524,-1.28,-1.341,0,-0.026,0.003,-1.004,1.037,-3.354,-0.061,0,0.17,0.002,-1.014,7.439,-6.341,0.244,153.843,-0.198,-0.304,1.039,-3.537,2.561,0,2119.256,-9,1,1
-0.2,-1,0.007,-0.305,-0.915,-0.854,2.323,-0.378,-0.842,-0.394,5.183,-3.11,-1.585,0,-0.038,0.012,-1,0,-2.5,-0.183,0,0.177,-0.018,-1.081,-2.622,10.549,4.634,153.843,-0.212,-0.313,1.036,-5.915,3.11,0.183,2119.256,1922,1,1
-0.2,-1,0.007,0.793,-0.732,-0.671,2.323,-0.382,-0.847,-0.375,8.293,-4.573,-0.854,0,-0.038,0.012,-1,-0.061,-1.463,0.061,0,0.191,-0.026,-1.091,1.159,1.768,1.463,153.843,-0.212,-0.313,1.036,-8.354,2.622,0.061,2119.256,2047,1,1
-0.186,-0.98,0.021,2.927,0.61,-0.183,2.323,-0.377,-0.846,-0.33,11.402,-6.707,-0.183,0,-0.061,0.009,-0.972,-0.671,-0.793,0.122,0,0.191,-0.026,-1.091,-2.317,6.402,0.183,153.843,-0.219,-0.337,1.003,-6.159,1.28,-0.061,2119.256,1142,1,1
-0.174,-0.983,0.048,4.817,1.707,1.22,2.323,-0.377,-0.846,-0.33,11.646,-7.195,-0.122,0,-0.061,0.009,-0.972,-1.037,-0.366,0.183,0,0.182,-0.023,-1.035,-1.585,4.146,-1.829,153.843,-0.219,-0.337,1.003,-5.244,1.768,0.183,2119.256,-2,1,1
-0.183,-0.992,0.076,1.585,2.317,0.305,2.323,-0.366,-0.843,-0.294,4.695,-3.78,-0.427,0,-0.07,0.002,-0.956,-0.061,-0.793,0.183,0,0.194,-0.037,-1.007,4.817,-6.707,1.829,153.843,-0.223,-0.344,0.99,-3.293,0.122,-0.305,2119.256,-981,1,1
-0.183,-0.992,0.076,-2.073,1.646,-1.28,2.323,-0.366,-0.847,-0.301,-0.976,-0.366,-0.854,0,-0.063,0.003,-0.969,0.427,-0.305,0.244,0,0.196,-0.037,-1.037,2.134,-2.378,0.793,153.843,-0.219,-0.348,1.011,-1.402,-0.976,-0.915,2119.256,-567,1,1
-0.188,-0.99,0.044,-3.963,0.854,-1.768,2.323,-0.366,-0.847,-0.301,-3.841,0.793,-0.976,0,-0.054,0.009,-0.988,1.646,0.976,0.305,0,0.196,-0.037,-1.037,2.378,1.829,-0.793,153.843,-0.209,-0.343,1.02,-0.061,0.122,-0.122,2119.256,-236,1,1
-0.188,-0.988,0.003,-2.927,0.976,-1.341,2.323,-0.375,-0.854,-0.323,-8.049,2.5,-0.915,0,-0.054,0.009,-0.988,1.402,1.585,0.427,0,0.183,-0.041,-1.07,-1.098,4.146,-0.305,153.843,-0.209,-0.343,1.02,0.488,0.793,0.366,2119.256,684,1,1
-0.188,-1,0.021,0.061,3.232,-0.793,2.323,-0.379,-0.853,-0.344,-8.72,2.378,0.488,0,-0.045,0.01,-0.988,0.549,1.829,0.488,0,0.18,-0.022,-1.06,-1.28,2.988,0.366,153.843,-0.211,-0.335,1.012,3.841,2.012,2.195,2119.256,273,1,1
-0.188,-1,0.021,0.183,3.171,-1.098,2.323,-0.376,-0.842,-0.356,-8.232,2.195,0.732,0,-0.043,0.002,-0.975,0.244,2.073,0.549,0,0.18,-0.022,-1.06,-4.024,4.451,0.122,153.843,-0.224,-0.319,1.01,3.476,1.341,1.768,2119.256,402,1,1
-0.186,-0.997,0.046,0.061,2.073,-1.28,2.323,-0.376,-0.842,-0.356,-6.646,1.646,0.366,0,-0.043,0.002,-0.975,0.366,1.768,0.427,0,0.18,0.013,-1.038,-5.305,3.171,1.037,153.843,-0.222,-0.33,1.007,-1.159,0.915,0.061,2119.256,256,1,1
-0.186,-0.997,0.046,1.463,1.037,-1.646,2.323,-0.372,-0.839,-0.366,-4.085,1.037,-0.427,0,-0.045,0.001,-0.969,0.793,0.061,0.244,0,0.193,-0.007,-1.036,0.732,-2.317,-1.037,153.843,-0.222,-0.33,1.007,-0.732,0.244,0.061,2119.256,-837,1,1
-0.174,-0.982,0.041,1.341,0.305,-2.012,2.323,-0.369,-0.844,-0.363,0.366,-0.305,-1.28,0,-0.048,0.003,-0.98,0.549,-0.488,0.244,0,0.193,-0.007,-1.036,-1.098,0.732,1.22,153.843,-0.219,-0.332,1.012,-1.28,-0.061,-0.244,2119.256,12,1,1
-0.172,-0.984,0.028,1.159,-0.244,-0.427,2.323,-0.369,-0.844,-0.363,2.622,-1.463,-1.22,0,-0.048,0.003,-0.98,0.305,-1.098,0.183,0,0.195,-0.023,-1.053,5.61,-3.049,-0.305,153.843,-0.219,-0.332,1.012,-2.195,0.488,-0.488,2119.256,43,1,1
-0.172,-0.984,0.028,1.829,-0.122,0.305,2.323,-0.371,-0.85,-0.356,4.085,-2.5,-0.793,0,-0.049,0.006,-0.985,0.183,-1.524,0.061,0,0.184,-0.023,-1.056,4.451,4.024,0.061,153.843,-0.219,-0.338,1.013,-1.768,0.671,-0.244,2119.256,129,1,1
-0.184,-1.012,0.029,2.012,0.549,0.244,2.323,-0.371,-0.85,-0.356,5.488,-3.293,-0.549,0,-0.049,0.006,-0.985,0.244,-1.341,0.061,0,0.184,-0.023,-1.056,2.073,0.244,-0.305,153.843,-0.218,-0.345,1.012,-2.012,0.305,-0.366,2119.256,87,1,1
-0.188,-1.074,0.028,-1.22,3.415,-6.402,2.323,-0.369,-0.843,-0.334,4.146,-3.598,0.305,0,-0.052,0.008,-0.976,-0.061,0.183,0.183,0,0.189,-0.028,-1.054,-0.305,4.329,0.732,153.843,-0.217,-0.35,1.003,-2.073,0.732,0.061,2119.256,116,1,1
-0.188,-1.074,0.028,-4.329,5.488,-13.537,2.323,-0.367,-0.836,-0.321,0.61,-1.585,0.183,0,-0.056,0.009,-0.968,-0.366,1.402,0.305,0,0.185,-0.031,-1.039,-0.366,0.183,1.341,153.843,-0.217,-0.35,1.003,-1.646,1.098,0.61,2119.256,388,1,1
-0.15,-1.031,0.032,-7.805,6.524,-19.146,2.323,-0.372,-0.849,-0.334,-2.744,0.122,-0.427,0,-0.052,0.007,-0.979,-0.366,1.098,0.305,0,0.185,-0.031,-1.039,1.646,-2.256,3.598,153.843,-0.223,-0.351,1,-0.854,0.854,0.488,2119.256,117,1,1
-0.15,-1.031,0.032,-9.146,6.585,-20.366,2.323,-0.372,-0.849,-0.334,-4.512,1.037,-0.793,0,-0.052,0.007,-0.979,0.549,0.61,0.366,0,0.184,-0.035,-1.025,1.829,-3.415,1.646,153.843,-0.223,-0.351,1,0.366,-0.061,0.122,2119.256,-204,1,1
-0.108,-0.915,0.033,-3.415,3.659,-11.768,2.323,-0.375,-0.855,-0.355,-2.988,0.793,-1.159,0,-0.045,0.006,-0.986,1.524,0.244,0.427,0,0.184,-0.035,-1.025,1.707,-0.854,0.061,153.843,-0.219,-0.341,1.009,1.646,0.061,0.549,2119.256,-92,1,1
-0.104,-0.875,0.034,0.061,2.134,-4.634,2.323,-0.375,-0.855,-0.355,-1.22,0.427,-1.402,0,-0.045,0.006,-0.986,1.768,0.305,0.427,0,0.189,-0.021,-1.043,-0.549,0.671,0.976,153.843,-0.219,-0.341,1.009,1.159,0.671,0.488,2119.256,-52,1,1
-0.104,-0.875,0.034,1.585,0.488,2.988,2.323,-0.369,-0.845,-0.35,-1.22,-0.61,-0.183,0,-0.045,0.009,-0.973,0.732,0.244,0.305,0,0.193,-0.021,-1.064,-0.793,-0.671,-2.561,156.167,-0.218,-0.34,1.011,0.671,0.61,0.671,2500.749,84,1,1
-0.116,-0.964,0.033,4.329,-1.829,11.524,2.323,-0.366,-0.841,-0.343,-0.122,-1.159,0.061,0,-0.046,0.006,-0.977,-0.244,0.366,0.305,0,0.193,-0.021,-1.064,-2.012,2.683,-0.793,156.167,-0.225,-0.337,1.007,0.793,0.976,0.915,2500.749,215,1,1
-0.143,-1.062,0.027,5.549,-2.317,11.646,2.323,-0.366,-0.841,-0.343,0,-1.341,0.244,0,-0.046,0.006,-0.977,-0.488,0,0.183,0,0.188,-0.013,-1.055,0.183,2.805,0.366,156.167,-0.225,-0.337,1.007,0.061,0.915,0.427,2500.749,8,1,1
-0.143,-1.062,0.027,4.146,-1.707,8.293,2.323,-0.371,-0.85,-0.35,-0.549,-1.402,0.488,0,-0.048,0.006,-0.985,0,-0.427,0.183,0,0.189,-0.022,-1.041,3.11,1.22,-0.061,156.167,-0.225,-0.34,1.004,-0.732,-0.122,-0.366,2500.749,1,1,1
-0.157,-1.059,0.024,0.976,-0.366,3.049,2.323,-0.371,-0.85,-0.35,0.122,-1.768,0.427,0,-0.048,0.006,-0.985,0.244,-0.122,0.183,0,0.189,-0.022,-1.041,0.976,-0.244,0.549,156.167,-0.219,-0.348,1.007,-0.854,-0.061,-0.427,2500.749,44,1,1
-0.157,-1.059,0.024,-2.195,0.671,-1.341,2.323,-0.373,-0.85,-0.345,0.793,-2.256,0.61,0,-0.049,0.008,-0.978,0.915,-0.183,0.183,0,0.183,-0.029,-1.045,1.829,0.915,-0.244,156.167,-0.219,-0.348,1.007,-0.61,0.488,-0.122,2500.749,130,1,1
-0.145,-0.996,0.025,-2.134,1.829,-5.305,2.323,-0.373,-0.843,-0.337,0.183,-1.585,-0.061,0,-0.051,0.01,-0.972,1.037,-0.244,0.244,0,0.182,-0.025,-1.047,0.305,1.159,0.061,156.167,-0.22,-0.348,1.005,-0.183,0.671,0.305,2500.749,106,1,1
-0.127,-0.948,0.034,-2.012,1.585,-3.537,2.323,-0.373,-0.845,-0.336,0.793,-1.707,-0.183,0,-0.052,0.009,-0.979,1.22,-0.122,0.305,0,0.182,-0.025,-1.047,3.171,0.61,0.61,156.167,-0.222,-0.346,1.007,0.244,0.61,0.366,2500.749,-37,1,1
-0.127,-0.948,0.034,-0.671,0.732,0.061,2.323,-0.373,-0.845,-0.336,0.671,-1.463,-0.244,0,-0.052,0.009,-0.979,1.159,-0.366,0.305,0,0.188,-0.024,-1.042,0.549,-3.841,0.915,156.167,-0.222,-0.346,1.007,0.976,0.61,0.61,2500.749,-28,1,1
-0.132,-0.969,0.034,1.037,0,4.634,2.323,-0.373,-0.849,-0.338,-0.061,-1.098,-0.305,0,-0.051,0.005,-0.979,0.854,0.122,0.244,0,0.194,-0.024,-1.049,0.122,3.963,0.305,156.167,-0.224,-0.342,1.008,0,0.793,0.183,2500.749,89,1,1
-0.146,-1.023,0.031,0.122,0.183,4.39,2.323,-0.372,-0.845,-0.334,-0.244,-1.646,0.366,0,-0.053,0.005,-0.975,1.159,0.244,0.244,0,0.194,-0.024,-1.049,-1.707,-0.793,1.402,156.167,-0.223,-0.344,1.005,-0.244,0.61,0.061,2500.749,-41,1,1
-0.147,-1.027,0.027,-0.305,0.976,-0.732,2.323,-0.375,-0.847,-0.34,-1.341,-1.037,0.122,0,-0.051,0.005,-0.98,0.915,-0.061,0.244,0,0.188,-0.026,-1.043,1.646,-5.61,-0.488,156.167,-0.222,-0.344,1.006,-0.305,0.427,-0.183,2500.749,221,1,1
-0.143,-0.988,0.026,-1.463,1.341,-1.89,2.323,-0.376,-0.847,-0.342,-0.488,-1.585,0.305,0,-0.051,0.005,-0.979,0.976,-0.061,0.244,0,0.188,-0.026,-1.043,0.854,-0.244,-0.366,156.167,-0.221,-0.345,1.005,0.122,0.61,0.183,2500.749,178,1,1
-0.143,-0.972,0.033,-0.732,1.037,-0.244,2.323,-0.376,-0.847,-0.342,-0.183,-1.768,0.244,0,-0.051,0.005,-0.979,0.976,-0.183,0.244,0,0.175,-0.027,-1.045,0.976,2.439,-0.122,156.167,-0.221,-0.345,1.005,0.488,0.671,0.244,2500.749,115,1,1
-0.143,-0.972,0.033,-0.183,0.488,1.402,2.323,-0.377,-0.845,-0.338,0.549,-2.134,0.427,0,-0.052,0.004,-0.975,1.037,-0.183,0.244,0,0.18,-0.027,-1.052,0.244,0.915,0.122,156.167,-0.222,-0.345,1.007,0.366,0.732,0.305,2500.749,216,1,1
-0.146,-0.997,0.033,0.305,0.244,1.707,2.323,-0.379,-0.843,-0.334,0.427,-1.585,0,0,-0.054,0.004,-0.978,0.976,-0.305,0.183,0,0.18,-0.027,-1.052,0,1.341,0.61,156.167,-0.222,-0.345,1.007,0.122,0.671,0.427,2500.749,208,1,1
-0.146,-0.997,0.033,-0.244,0.244,1.646,2.323,-0.379,-0.843,-0.334,-0.183,-1.22,-0.122,0,-0.054,0.004,-0.978,0.915,-0.244,0.183,0,0.18,-0.024,-1.055,0.61,-2.317,0.549,156.167,-0.223,-0.344,1.006,0.366,0.854,0.488,2500.749,169,1,1
-0.146,-1.009,0.026,-0.549,0.366,1.098,2.323,-0.378,-0.847,-0.334,0.183,-1.524,0,0,-0.054,0.003,-0.98,0.976,-0.366,0.244,0,0.18,-0.024,-1.055,1.646,0.732,0.976,156.167,-0.225,-0.344,1.005,0.488,0.793,0.488,2500.749,53,1,1
-0.142,-0.994,0.027,-0.732,1.037,-0.122,2.323,-0.379,-0.848,-0.335,-0.915,-1.28,0.122,0,-0.054,0,-0.98,1.28,-0.305,0.183,0,0.182,-0.025,-1.041,0.976,2.317,-0.366,156.167,-0.225,-0.344,1.007,0.732,0.488,0.61,2500.749,-201,1,1
-0.142,-0.994,0.027,-0.793,1.402,-0.061,2.323,-0.379,-0.848,-0.335,-0.61,-1.463,0.183,0,-0.054,0,-0.98,1.159,-0.244,0.183,0,0.183,-0.017,-1.042,-1.89,2.866,-0.854,156.167,-0.225,-0.344,1.007,0.732,0.915,0.549,2500.749,-12,1,1
-0.149,-0.992,0.028,-0.854,1.28,0.488,2.323,-0.38,-0.847,-0.335,-0.488,-1.707,0.488,0,-0.054,0.002,-0.972,0.976,-0.183,0.122,0,0.183,-0.017,-1.042,-3.354,5,0.427,156.167,-0.225,-0.343,1.004,0.061,0.976,0.244,2500.749,56,1,1
-0.148,-0.992,0.031,0.244,0.854,0.061,2.323,-0.38,-0.841,-0.33,-0.366,-1.707,0.427,0,-0.054,0.002,-0.972,1.159,0.122,0.244,0,0.19,-0.036,-1.055,1.463,2.378,1.829,156.167,-0.225,-0.343,1.004,0.427,0.366,0.427,2500.749,75,1,1
-0.148,-0.992,0.031,-0.427,0.793,0.549,2.323,-0.38,-0.841,-0.33,-1.22,-1.098,0.061,0,-0.055,0.002,-0.978,0.61,0.244,0.305,0,0.186,-0.024,-1.048,3.354,-4.451,1.402,156.167,-0.226,-0.343,1.007,0.366,-0.061,0.305,2500.749,83,1,1
-0.148,-1,0.029,-0.61,0.732,1.402,2.323,-0.385,-0.848,-0.338,-1.341,-0.976,0.183,0,-0.054,0,-0.983,1.22,-0.244,0.183,0,0.186,-0.024,-1.048,2.744,-5.183,0.854,156.167,-0.226,-0.343,1.006,-0.305,0.61,0.183,2500.749,-104,1,1
-0.148,-1,0.029,0.061,0.61,0.793,2.323,-0.385,-0.848,-0.338,-0.854,-1.22,0.122,0,-0.054,0,-0.983,1.22,-0.244,0.183,0,0.173,-0.024,-1.038,0.976,2.256,0.427,156.167,-0.226,-0.343,1.006,0.061,0.488,0,2500.749,68,1,1
-0.152,-1,0.028,-0.488,0.732,0.183,2.323,-0.384,-0.846,-0.338,-0.244,-1.646,0.183,0,-0.055,0,-0.976,1.402,0,0.183,0,0.173,-0.024,-1.038,1.159,-3.72,0,156.167,-0.223,-0.344,1.006,0,0.183,-0.061,2500.749,76,1,1
-0.152,-1,0.028,-2.012,0.793,-0.305,2.323,-0.384,-0.84,-0.331,-0.061,-2.012,0.488,0,-0.055,0,-0.976,1.341,-0.122,0.122,0,0.185,-0.027,-1.05,0.244,4.146,0.305,156.167,-0.223,-0.344,1.006,-0.183,0.183,0.061,2500.749,-118,1,1
-0.148,-0.991,0.028,-0.244,0.671,-0.427,2.323,-0.384,-0.84,-0.331,-0.915,-1.22,0.061,0,-0.058,0,-0.976,1.28,-0.183,0.183,0,0.171,-0.029,-1.049,0.366,1.707,0.122,156.167,-0.224,-0.346,1.007,-0.061,0.488,0.183,2500.749,117,1,1
-0.148,-0.985,0.03,0.183,0.488,0.427,2.323,-0.386,-0.847,-0.332,-0.366,-1.159,-0.244,0,-0.057,0,-0.981,0.671,-0.305,0.183,0,0.171,-0.029,-1.049,0.061,0.244,0.671,156.167,-0.224,-0.346,1.007,0.183,0.793,0.366,2500.749,-614,1,1
-0.148,-0.985,0.03,0.244,0.427,1.159,2.323,-0.386,-0.847,-0.332,0,-1.402,-0.061,0,-0.057,0,-0.981,0.793,-0.305,0.244,0,0.184,-0.029,-1.046,1.951,0.488,0.854,156.167,-0.226,-0.344,1.006,0.305,0.549,0.305,2500.749,-947,1,1
-0.149,-1,0.03,0.061,0.488,1.098,2.323,-0.385,-0.846,-0.333,-0.183,-1.341,0.061,0,-0.056,-0.003,-0.979,0.671,-0.183,0.244,0,0.184,-0.029,-1.046,2.561,2.561,0,156.167,-0.228,-0.342,1.009,0.366,0.427,0.244,2500.749,752,1,1
-0.149,-1,0.03,-0.366,0.671,0.427,2.323,-0.385,-0.842,-0.33,-0.305,-1.341,0.122,0,-0.056,-0.003,-0.979,0.488,0.061,0.244,0,0.182,-0.024,-1.044,1.037,7.805,0.732,156.167,-0.228,-0.342,1.009,-0.488,0.488,0,2500.749,796,1,1
-0.152,-1.007,0.029,-0.732,0.671,0.061,2.323,-0.385,-0.842,-0.33,-1.159,-1.098,0.366,0,-0.059,-0.001,-0.975,0.488,0.305,0.183,0,0.195,-0.029,-1.05,-0.244,3.72,-1.098,156.167,-0.225,-0.346,1.003,-1.22,0.305,-0.366,2500.749,653,1,1
-0.148,-0.992,0.028,0.427,0.61,-1.037,2.323,-0.389,-0.843,-0.332,-1.037,-1.037,0.061,0,-0.059,0,-0.979,-0.244,0.061,0.244,0,0.195,-0.029,-1.05,-0.671,5.183,-0.732,156.167,-0.223,-0.348,1.004,-0.366,-0.427,-0.061,2500.749,272,1,1
-0.148,-0.992,0.028,1.341,0.793,-0.305,2.323,-0.388,-0.845,-0.334,-0.915,-0.61,-0.183,0,-0.059,0,-0.979,-0.488,-0.061,0.244,0,0.193,-0.034,-1.043,0.427,-4.451,-0.305,156.167,-0.223,-0.348,1.004,-0.061,0.183,-0.122,2500.749,186,1,1
-0.149,-0.989,0.034,1.037,0.732,0.427,2.323,-0.388,-0.845,-0.334,-0.122,-0.976,-0.061,0,-0.057,0,-0.978,-0.122,0,0.244,0,0.185,-0.028,-1.039,0.427,-0.427,0.854,156.167,-0.225,-0.346,1.004,0.183,0.793,0.366,2500.749,141,1,1
-0.152,-1,0.038,-0.183,0.732,0.061,2.323,-0.388,-0.843,-0.332,-0.244,-0.915,-0.366,0,-0.057,0,-0.978,0.122,0.122,0.305,0,0.185,-0.028,-1.039,1.159,0.061,0.305,156.167,-0.225,-0.346,1.004,0.793,0.854,0.488,2500.749,59,1,1
-0.152,-1,0.038,-1.159,0.61,-0.366,2.323,-0.388,-0.843,-0.332,-0.671,-0.732,-0.305,0,-0.057,0,-0.977,0.122,0.427,0.366,0,0.19,-0.024,-1.05,-0.915,-3.476,1.28,156.167,-0.225,-0.345,1.006,0.488,0.549,0.183,2500.749,-7,1,1
-0.149,-0.995,0.031,-0.549,0.549,-0.488,2.323,-0.388,-0.846,-0.337,-2.134,0,-0.488,0,-0.058,0.002,-0.976,0.122,0.488,0.305,0,0.181,-0.026,-1.053,0.61,0.671,-0.427,155.429,-0.225,-0.347,1.006,-0.061,0.366,0.122,2538.408,-22,1,1
-0.148,-0.99,0.029,0.488,0.549,0.122,2.323,-0.388,-0.846,-0.337,-1.463,-0.244,-0.488,0,-0.056,0.003,-0.979,-0.122,0.122,0.305,0,0.189,-0.03,-1.045,1.707,0.732,-0.366,155.429,-0.224,-0.348,1.003,-0.244,0.122,0.061,2538.408,-250,1,1
-0.148,-0.989,0.035,1.098,0.427,0.549,2.323,-0.387,-0.846,-0.34,-0.793,-0.549,-0.427,0,-0.054,0.002,-0.981,-0.122,0,0.305,0,0.189,-0.03,-1.045,0.976,2.988,0,155.429,-0.224,-0.348,1.003,0.183,0,0.122,2538.408,54,1,1
-0.148,-0.989,0.035,1.098,0.427,1.28,2.323,-0.387,-0.846,-0.34,-0.488,-0.793,-0.244,0,-0.054,0.002,-0.981,-0.244,-0.061,0.305,0,0.186,-0.026,-1.036,-0.061,0.793,-0.122,155.429,-0.224,-0.348,1.008,0.793,0.793,0.61,2538.408,40,1,1
-0.151,-1.008,0.033,1.402,0.244,1.463,2.323,-0.389,-0.846,-0.34,0.732,-1.89,0.305,0,-0.057,0.004,-0.975,-0.183,-0.793,0.183,0,0.186,-0.026,-1.036,-0.244,0.061,0.183,155.429,-0.226,-0.344,1.004,0.671,0.976,0.61,2538.408,97,1,1
-0.151,-1.008,0.033,2.378,0.122,0.549,2.323,-0.388,-0.841,-0.332,1.28,-2.012,0.122,0,-0.057,0.004,-0.975,-0.061,-1.037,0.122,0,0.198,-0.016,-1.052,-2.805,1.951,1.037,155.429,-0.226,-0.344,1.004,0.671,0.488,0.549,2538.408,68,1,1
-0.151,-1.004,0.034,3.11,0.488,-0.915,2.323,-0.388,-0.841,-0.332,2.5,-2.317,-0.061,0,-0.06,0.006,-0.971,-0.61,-0.671,0.183,0,0.195,-0.031,-1.054,-0.488,-3.841,3.598,155.429,-0.228,-0.343,1.004,-0.061,0.183,0.488,2538.408,139,1,1
-0.145,-0.974,0.059,-0.488,1.159,-1.037,2.323,-0.385,-0.836,-0.322,1.463,-1.768,-0.061,0,-0.06,0.006,-0.971,-0.671,0.122,0.305,0,0.195,-0.031,-1.054,0.671,-1.159,1.22,155.429,-0.228,-0.343,1.004,-0.305,0.061,0,2538.408,83,1,1
-0.145,-0.974,0.059,-1.341,0.732,0.122,2.323,-0.385,-0.836,-0.322,0,-0.793,-0.427,0,-0.059,0.006,-0.981,0,0.488,0.305,0,0.19,-0.016,-1.037,1.22,1.28,2.134,155.429,-0.225,-0.344,1.004,-0.244,0.183,-0.061,2538.408,73,1,1
-0.152,-0.966,0.065,-8.11,-0.366,0.854,2.323,-0.39,-0.849,-0.331,-1.524,0.061,-0.732,0,-0.058,0.009,-0.982,0.183,0.61,0.305,0,0.19,-0.016,-1.037,1.646,1.951,0.671,155.429,-0.225,-0.347,1.006,-0.427,0.61,-0.061,2538.408,40,1,1
-0.153,-1.02,-0.002,-14.207,-1.22,0.793,2.323,-0.387,-0.845,-0.331,-2.439,-0.061,-0.244,0,-0.059,0.009,-0.973,0,0.732,0.305,0,0.194,-0.017,-1.041,-2.561,5.244,1.646,155.429,-0.225,-0.347,1.006,-1.402,0.122,-0.427,2538.408,70,1,1
-0.153,-1.02,-0.002,-1.89,-1.463,0.732,2.323,-0.386,-0.841,-0.337,-3.902,0.305,-0.061,0,-0.059,0.009,-0.973,0,0.915,0.305,0,0.191,-0.033,-1.051,-2.012,-1.463,3.902,155.429,-0.223,-0.355,1.004,1.037,0.488,0.488,2538.408,57,1,1
-0.146,-1.006,-0.012,5.244,-0.854,0.976,2.323,-0.386,-0.841,-0.337,-2.805,0,-0.305,0,-0.058,0.01,-0.974,0.183,0.366,0.305,0,0.201,-0.023,-1.041,-1.524,2.622,3.11,155.429,-0.226,-0.344,1.005,1.341,0.549,0.549,2538.408,17,1,1
-0.146,-1.006,-0.012,3.11,0.915,1.098,2.323,-0.386,-0.842,-0.343,-2.073,-0.305,-0.366,0,-0.058,0.01,-0.974,0.366,0,0.305,0,0.201,-0.023,-1.041,2.195,1.585,4.024,155.429,-0.226,-0.344,1.005,1.402,0.427,0.488,2538.408,10,1,1
-0.154,-0.996,0.025,1.829,2.317,-0.122,2.323,-0.386,-0.842,-0.343,-0.976,-0.366,-0.488,0,-0.055,0.009,-0.978,1.037,0.183,0.366,0,0.185,-0.006,-1.028,0.366,5.488,2.256,155.429,-0.225,-0.338,1.004,0.488,-0.427,-0.061,2538.408,37,1,1
-0.157,-0.989,0.048,2.256,1.463,0.244,2.323,-0.385,-0.84,-0.341,-1.768,-0.122,-0.488,0,-0.054,0.009,-0.983,0.915,0.366,0.305,0,0.185,-0.006,-1.028,-0.915,0.671,0.549,155.429,-0.225,-0.338,1.004,-0.732,0.183,-0.183,2538.408,90,1,1
-0.157,-0.989,0.048,0.427,0.366,0.488,2.323,-0.387,-0.843,-0.346,-1.951,-0.183,-0.427,0,-0.054,0.009,-0.983,0.915,0.366,0.244,0,0.21,-0.02,-1.054,-0.305,-2.866,0.915,155.429,-0.224,-0.346,1.006,-0.793,1.159,0.183,2538.408,77,1,1
-0.152,-0.993,0.026,-1.768,-0.305,0,2.323,-0.387,-0.843,-0.346,-0.854,-0.549,-0.427,0,-0.055,0.009,-0.977,0.732,0.061,0.244,0,0.206,-0.02,-1.054,-0.061,-0.305,0.61,155.429,-0.229,-0.348,1.008,-0.61,0.427,0.244,2538.408,0,1,1
-0.152,-0.993,0.026,-1.585,-0.305,-0.122,2.323,-0.382,-0.84,-0.342,-0.732,-0.366,-0.732,0,-0.055,0.009,-0.977,0.244,0.366,0.244,0,0.206,-0.02,-1.054,1.22,-1.768,-0.244,155.429,-0.229,-0.348,1.008,-0.366,0.61,0,2538.408,-3,1,1
-0.142,-0.995,0.006,0.732,0.061,0.183,2.323,-0.382,-0.84,-0.342,-0.183,-0.549,-0.793,0,-0.055,0.009,-0.98,0.122,0.061,0.244,0,0.199,-0.013,-1.033,0.427,1.463,0.915,155.429,-0.226,-0.345,1,-1.463,0.366,-0.244,2538.408,102,1,1
-0.155,-0.989,0.027,4.878,1.524,1.463,2.323,-0.383,-0.847,-0.346,-0.915,-1.159,0.183,0,-0.058,0.01,-0.979,-0.061,-0.854,0.183,0,0.199,-0.013,-1.033,2.744,0.915,0.854,155.429,-0.226,-0.345,1,-2.439,0.366,-0.488,2538.408,151,1,1
-0.155,-0.989,0.027,3.963,1.951,1.402,2.323,-0.385,-0.841,-0.342,0,-2.073,0.793,0,-0.058,0.01,-0.979,0.122,-0.427,0.305,0,0.205,-0.025,-1.033,0.976,7.256,1.037,155.429,-0.223,-0.357,1.004,-0.915,0.671,0,2538.408,-186,1,1
-0.165,-0.992,0.056,2.378,1.646,1.098,2.323,-0.385,-0.841,-0.342,1.646,-2.744,0.976,0,-0.058,0.012,-0.974,-0.122,-0.061,0.305,0,0.211,-0.022,-1.037,0.122,6.646,-1.098,155.429,-0.225,-0.354,1.003,-0.671,0.915,0.122,2538.408,-177,1,1
-0.165,-0.992,0.056,0.671,0.976,1.22,2.323,-0.386,-0.832,-0.333,-1.098,-1.402,0.915,0,-0.058,0.012,-0.974,0.61,0.549,0.366,0,0.211,-0.022,-1.037,-0.183,6.341,-2.134,155.429,-0.225,-0.354,1.003,-0.488,0.793,0.305,2538.408,59,1,1
-0.16,-0.992,0.045,-0.427,0.122,0.854,2.323,-0.386,-0.836,-0.34,-2.744,0.427,-0.793,0,-0.058,0.012,-0.974,0.122,0.488,0.305,0,0.222,-0.008,-1.039,-4.878,9.573,-3.232,155.429,-0.227,-0.355,1.003,-0.793,0.671,0.244,2538.408,27,1,1
-0.153,-0.993,0.024,-1.402,0.305,1.463,2.323,-0.386,-0.836,-0.34,-3.78,0.732,-0.793,0,-0.055,0.012,-0.981,0,0.793,0.305,0,0.238,-0.027,-1.034,2.744,0.732,1.524,155.429,-0.226,-0.356,0.999,0.305,1.159,0.549,2538.408,88,1,1
-0.161,-1.003,0.033,2.073,0.854,1.159,2.323,-0.387,-0.839,-0.357,-1.402,-0.671,0,0,-0.052,0.013,-0.98,-0.244,0.549,0.305,0,0.241,-0.007,-1.048,-1.951,-1.22,0.671,155.429,-0.23,-0.353,1.006,-0.305,0.366,-0.061,2538.408,182,1,1
-0.156,-0.998,0.043,2.378,0.915,0.488,2.323,-0.387,-0.839,-0.357,-2.073,-0.549,0.366,0,-0.054,0.015,-0.974,0.061,0.305,0.305,0,0.241,0.013,-1.042,1.463,7.622,-1.341,155.429,-0.225,-0.353,0.999,-0.427,0,0.183,2538.408,53,1,1
-0.156,-0.998,0.043,3.537,1.037,-0.305,2.323,-0.385,-0.835,-0.353,-1.707,-0.305,0.061,0,-0.054,0.015,-0.974,-0.305,-0.549,0.244,0,0.241,0.013,-1.042,-4.756,13.11,0.061,155.429,-0.225,-0.353,0.999,0.305,1.22,0.976,2538.408,70,1,1
-0.162,-0.987,0.038,3.293,1.341,-0.488,2.323,-0.383,-0.836,-0.352,-2.866,-0.61,0.61,0,-0.054,0.016,-0.983,-0.915,-0.793,0.244,0,0.251,-0.027,-1.02,6.159,-0.366,1.951,155.429,-0.231,-0.349,0.996,0.183,1.829,0.976,2538.408,-7,1,1
-0.162,-0.987,0.038,1.951,2.378,-1.098,2.323,-0.383,-0.836,-0.352,-6.768,0.488,1.585,0,-0.055,0.016,-0.98,-0.549,-0.854,0.305,0,0.251,-0.027,-1.02,3.963,-3.78,3.11,155.429,-0.231,-0.349,0.996,-0.976,1.28,0.305,2538.408,10,1,1
-0.163,-0.984,0.054,-2.317,2.622,0.305,2.323,-0.385,-0.821,-0.36,-13.476,2.744,2.317,0,-0.055,0.016,-0.98,-0.061,0.244,0.366,0,0.244,-0.011,-1.034,-0.366,1.951,1.707,155.429,-0.234,-0.36,1.006,-0.61,0.793,-0.122,2538.408,54,1,1
-0.163,-0.988,0.061,-3.232,1.524,1.646,2.323,-0.385,-0.821,-0.36,-16.829,3.963,2.073,0,-0.061,0.018,-0.971,0.915,1.037,0.305,0,0.245,-0.01,-1.046,-1.22,-5.488,-1.768,155.429,-0.229,-0.361,0.999,-0.305,0.244,-0.061,2538.408,98,1,1
-0.163,-0.988,0.061,-0.366,0.488,1.341,2.323,-0.388,-0.816,-0.395,-15.732,4.756,0.549,0,-0.061,0.018,-0.971,1.22,0.793,0.305,0,0.245,-0.01,-1.046,-2.012,1.707,-0.793,155.429,-0.229,-0.361,0.999,-0.366,0.488,0,2538.408,50,1,1
-0.16,-0.981,0.042,1.89,0.366,1.951,2.323,-0.388,-0.816,-0.395,-12.5,4.939,-0.549,0,-0.06,0.018,-0.975,0.732,0.427,0.244,0,0.239,-0.014,-1.035,1.037,-5.61,-1.646,155.429,-0.229,-0.359,0.996,0,0.488,0.183,2538.408,40,1,1
-0.16,-0.981,0.042,2.073,0.427,3.476,2.323,-0.38,-0.813,-0.408,-7.073,1.159,0.732,0,-0.053,0.016,-0.979,0.671,0.732,0.366,0,0.239,-0.014,-1.035,-0.305,3.476,0.671,155.429,-0.229,-0.359,0.996,0.488,0.427,0.244,2538.408,54,1,1
-0.169,-1.003,0.04,2.5,0.488,4.207,2.323,-0.383,-0.81,-0.418,-5.854,0.793,0.854,0,-0.053,0.016,-0.979,0.854,0.244,0.305,0,0.227,-0.007,-1.03,0.122,-6.341,0.854,155.429,-0.23,-0.355,1,0.854,0.488,0.305,2538.408,72,1,1
-0.18,-1.008,0.059,5.549,1.037,2.561,2.323,-0.383,-0.81,-0.418,-4.39,0.305,0.854,0,-0.053,0.015,-0.977,0.976,0,0.305,0,0.227,-0.007,-1.03,1.402,-11.28,0.122,155.429,-0.23,-0.355,1,1.28,0.793,0.488,2538.408,118,1,1
-0.18,-1.008,0.059,4.939,1.037,1.402,2.323,-0.382,-0.805,-0.418,-1.89,-0.671,0.549,0,-0.053,0.015,-0.977,0.976,0.061,0.244,0,0.229,-0.002,-1.034,-0.061,2.561,-0.305,155.429,-0.231,-0.351,1.001,-0.061,0.976,0.305,2538.408,160,1,1
-1.026,0.135,-0.066,-0.793,0.854,1.28,0,-0.972,0.313,0.134,2.012,1.951,-5.061,0,0.092,0.931,0.318,1.28,-3.049,-0.366,484.474,-0.527,0.041,-0.929,2.439,10.061,-0.671,759.922,-0.943,-0.285,0.073,-33.659,-12.988,-1.768,2099.746,566,1,0
-1.023,0.129,-0.068,-1.28,1.829,-1.098,0,-0.972,0.313,0.134,0.732,2.378,-2.805,0,0.092,0.931,0.318,1.28,-3.049,-0.366,484.474,-0.527,0.041,-0.929,4.085,6.951,-0.366,759.922,-0.931,-0.325,0.047,-14.756,-0.061,2.744,2099.746,467,1,0
-1.023,0.129,-0.068,-1.28,2.012,-2.195,0,-0.966,0.317,0.128,3.963,-1.768,-0.549,0,0.104,0.931,0.325,0.366,-6.22,-1.341,484.474,-0.526,0.037,-0.929,4.817,4.146,0.732,759.922,-0.931,-0.325,0.047,10.671,9.329,9.085,2099.746,-268,1,0
-1.023,0.113,-0.078,-3.415,2.012,-2.744,0,-0.966,0.317,0.128,5.488,-4.024,0.976,0,0.104,0.931,0.325,-3.354,-8.293,-2.317,484.474,-0.526,0.037,-0.929,4.634,5.122,1.037,759.922,-0.974,-0.307,0.105,24.756,16.646,13.78,2099.746,-20,1,0
-1.02,0.103,-0.087,-1.951,1.524,-0.915,0,-0.964,0.316,0.118,4.146,-3.232,2.5,0,0.091,0.915,0.322,-2.561,-10.732,-2.805,484.474,-0.533,0.028,-0.923,4.329,-1.159,0.915,759.922,-0.974,-0.307,0.105,27.134,20.122,14.634,2099.746,-22,1,0
-1.02,0.103,-0.087,-18.841,-1.707,6.707,0,-0.964,0.316,0.118,5.549,-2.622,2.256,0,0.091,0.915,0.322,-1.707,-11.829,-4.451,484.474,-0.534,0.027,-0.916,4.634,-2.073,1.037,759.922,-0.997,-0.283,0.165,17.866,21.098,10.976,2099.746,153,1,0
-1.021,0.113,-0.061,-27.622,-9.878,17.561,0,-0.953,0.3,0.121,13.963,-0.305,-0.61,0,0.102,0.889,0.32,-3.293,-12.683,-5,484.474,-0.534,0.027,-0.916,5.183,-4.329,4.085,759.922,-0.997,-0.283,0.165,4.878,23.049,4.756,2099.746,108,1,0
-1.021,0.113,-0.061,-10.183,-4.878,13.963,0,-0.933,0.348,0.117,10.61,10.366,-5.915,0,0.102,0.889,0.32,-4.512,-15.976,-2.683,484.474,-0.595,0.008,-0.894,7.622,-5.366,3.841,759.922,-0.988,-0.291,0.186,13.841,26.829,-4.512,2099.746,118,1,0
-1.037,0.178,-0.041,-11.768,1.28,6.341,0,-0.933,0.348,0.117,7.744,14.146,-5.915,0,0.128,0.91,0.343,13.171,-20.488,0.488,484.474,-0.595,0.008,-0.894,11.89,-4.939,7.317,759.922,-0.982,-0.271,0.195,16.585,25.427,-0.671,2099.746,116,1,0
-1.016,0.16,-0.06,-2.073,1.524,1.159,0,-0.981,0.392,0.102,5.732,3.841,0.732,0,0.084,0.912,0.385,3.537,-13.72,-4.573,484.474,-0.619,0.014,-0.865,14.878,-1.098,10.122,759.922,-0.982,-0.271,0.195,5.793,25.61,10.183,2099.746,-73,1,0
-1.016,0.16,-0.06,-0.244,1.524,0.305,0,-0.922,0.376,0.13,14.756,-7.5,-0.488,0,0.084,0.912,0.385,-0.244,-13.354,-5.732,484.474,-0.618,0.028,-0.842,16.829,-3.598,6.768,759.922,-0.958,-0.347,0.258,-7.622,21.768,34.512,2099.746,182,1,0
-1.017,0.161,-0.058,0.183,3.049,-3.72,0,-0.922,0.376,0.13,12.073,-0.305,-4.39,0,0.113,0.894,0.354,8.841,-7.866,-1.28,484.474,-0.618,0.028,-0.842,12.744,-5.976,8.232,759.922,-0.962,-0.319,0.536,28.72,3.232,43.72,2099.746,112,1,0
-1.017,0.161,-0.058,1.463,3.78,-6.89,0,-0.937,0.377,0.122,10.305,-0.122,-7.134,0,0.122,0.917,0.319,8.72,-7.622,0.183,484.474,-0.634,0.024,-0.803,12.134,-2.256,6.524,759.922,-0.962,-0.319,0.536,-18.598,1.768,33.78,2099.746,115,1,0
-1.021,0.155,-0.066,-1.951,5.549,-11.159,0,-0.937,0.377,0.122,3.476,0.793,-8.72,0,0.122,0.917,0.319,6.768,-6.646,0.732,484.474,-0.646,0.041,-0.805,6.585,10.061,3.293,759.922,-1.03,-0.409,0.517,-74.878,-16.89,11.89,2099.746,218,1,0
-1.029,0.127,-0.071,-1.646,6.402,-15.915,0,-0.938,0.349,0.097,3.293,0.671,-6.402,0,0.148,0.912,0.299,5.915,-3.598,1.524,484.474,-0.646,0.041,-0.805,11.28,11.402,3.476,759.922,-1.048,-0.478,0.371,-3.11,-54.207,-11.463,2099.746,424,1,0
-1.029,0.127,-0.071,1.098,6.707,-18.841,0,-0.958,0.333,0.089,-1.098,1.28,-3.963,0,0.136,0.898,0.262,10.305,-1.768,5.793,484.474,-0.65,0.017,-0.782,10.366,16.829,1.159,759.922,-1.048,-0.478,0.371,4.573,-62.012,-31.098,2099.746,-180,1,0
-1.056,0.142,-0.074,-0.305,10.305,-24.695,0,-0.958,0.333,0.089,-3.659,0.61,-4.939,0,0.136,0.898,0.262,18.232,-2.012,7.256,484.474,-0.65,0.017,-0.782,7.744,14.573,-3.11,759.922,-0.939,-0.365,0.335,-15.305,-64.939,-50.915,2099.746,-407,1,0
-1.236,0.226,0.042,-9.695,17.439,-48.476,0,-0.97,0.32,0.091,-5.183,-2.317,-6.402,0,0.113,0.989,0.204,20.427,-0.793,6.829,484.474,-0.599,0.005,-0.798,11.524,32.805,2.988,759.922,-0.939,-0.365,0.335,-52.256,-56.646,-71.463,2099.746,-77,1,0
-1.236,0.226,0.042,-54.085,26.951,-75.122,0,-1.07,0.293,0.125,-0.976,-7.073,7.927,0,0.113,0.989,0.204,13.598,1.098,6.22,484.474,-0.593,-0.038,-0.751,20.122,22.134,11.646,759.922,-0.657,-0.619,0.332,-78.598,-42.256,-87.622,2099.746,42,1,0
-1.005,-0.204,0.152,-94.268,22.683,-82.622,0,-1.07,0.293,0.125,-1.768,-8.78,29.268,0,0.089,1.022,0.015,5.549,0.244,-4.634,484.474,-0.593,-0.038,-0.751,39.939,30.488,21.037,759.922,-0.657,-0.619,0.332,-31.89,-25.671,-83.78,2099.746,92,1,0
-1.005,-0.204,0.152,-111.951,2.805,-69.756,0,-1.155,0.295,0.049,-13.171,-8.049,51.098,0,0.228,0.854,0.179,-37.622,13.598,-28.598,484.474,-0.447,-0.084,-0.484,68.963,32.622,22.988,759.922,-0.362,-0.36,0.275,133.049,-33.415,-37.378,2099.746,121,1,0
-0.599,-0.321,-0.601,-26.463,6.951,22.012,0,-0.717,0.144,0.132,-31.768,-23.11,22.927,0,0.228,0.854,0.179,-76.951,36.159,-22.561,484.474,-0.072,-0.11,-0.668,53.11,67.439,4.085,759.922,-0.744,-0.179,0.169,119.756,-38.78,9.939,2099.746,116,1,0
-1.036,0.067,-0.32,65.244,14.085,28.78,0,-0.717,0.144,0.132,-15.427,-17.683,-25.976,0,0.04,0.473,0.112,81.159,4.695,13.963,484.474,-0.072,-0.11,-0.668,38.415,90.732,2.866,759.922,-0.744,-0.179,0.169,78.049,-57.195,45.244,2099.746,75,1,0
-1.318,0.13,0.021,-18.598,30,-7.439,0,-0.768,0.366,0.223,5.122,-52.439,-57.5,0,0.103,1.064,0.395,101.829,-2.378,8.11,484.474,-0.274,-0.265,-0.839,6.768,74.817,-24.207,759.922,-1.148,-0.237,0.043,-130.305,-34.756,-16.585,2099.746,64,1,0
-1.318,0.13,0.021,-16.89,37.927,-45.915,0,-0.811,0.764,0.293,39.451,-28.049,-34.634,0,0.103,1.064,0.395,97.439,21.402,-20,484.474,-0.188,-0.15,-0.856,-43.902,26.707,-38.659,759.922,-0.772,-0.381,0.305,1.463,-3.841,-31.341,2099.746,1,1,0
-1.06,-0.078,-0.214,-16.585,29.939,-84.695,0,-0.811,0.764,0.293,5.122,-8.537,-21.768,0,0.278,1.023,0.285,38.415,38.293,-0.244,484.474,-0.188,-0.15,-0.856,-54.39,64.878,-20.061,759.922,-0.772,-0.381,0.305,169.329,30.976,-22.622,2099.746,24,1,0
-1.06,-0.078,-0.214,-47.927,20.854,-95.61,0,-0.746,0.687,0.309,-66.89,-1.768,11.463,0,-0.011,0.859,0.135,-9.817,29.207,-13.902,484.474,-0.153,-0.102,-0.959,-37.805,70.976,7.805,759.922,-0.563,-0.1,0.869,319.634,-4.878,-24.878,2099.746,75,1,0
-0.889,-0.271,-0.347,-68.293,7.622,-112.073,0,-0.736,0.176,0.17,-78.232,43.537,11.402,0,-0.011,0.859,0.135,32.317,38.659,16.22,484.474,-0.277,0.17,-0.943,-26.646,69.146,40.61,759.922,-0.565,0.543,0.9,361.646,-31.829,3.354,2099.746,97,1,0
-0.681,-0.504,-0.346,-35.549,22.378,-96.341,0,-0.736,0.176,0.17,-37.378,83.537,0.183,0,-0.26,0.926,0.172,0.854,20.732,20.793,484.474,-0.277,0.17,-0.943,-23.537,44.024,3.963,759.922,-0.565,0.543,0.9,301.524,-23.232,60.427,2099.746,38,1,0
-0.681,-0.504,-0.346,13.963,41.524,-60.244,0,-0.885,0.167,0.355,-0.183,73.537,-5.549,0,0,0.863,0.364,71.829,-13.049,11.768,484.474,-0.282,0.096,-1.011,-34.634,46.463,-45.427,759.922,-0.665,0.563,0.196,-169.634,6.585,95.305,2099.746,29,1,1
-0.91,-0.463,-0.519,24.512,60.732,-50.671,0,-0.885,0.167,0.355,57.195,53.598,-21.707,0,0,0.863,0.364,53.841,-20.671,35.305,484.474,-0.322,0.019,-1.099,-11.098,72.317,-42.317,759.922,-0.615,-0.118,-0.848,-224.634,33.415,78.902,2099.746,35,1,1
-0.862,-0.811,-0.501,86.098,63.232,-80.427,0,-0.649,0.692,0.363,30.854,45.305,-93.232,0,0.016,0.476,0.33,107.561,-30.854,61.402,484.474,-0.322,0.019,-1.099,4.939,85.854,-16.341,759.922,-0.615,-0.118,-0.848,-26.098,92.012,83.72,2099.746,60,1,1
-0.862,-0.811,-0.501,120.549,73.537,-117.866,0,-0.371,0.429,0.208,-0.854,66.037,-105.976,0,0.016,0.476,0.33,198.049,-32.134,82.134,484.474,-0.138,-0.096,-1.131,70.305,56.951,2.683,759.922,-3.07,-0.635,1.104,73.537,142.5,-34.451,2099.746,60,1,1
-0.621,-0.84,-0.101,78.415,72.317,-175.488,0,-0.371,0.429,0.208,9.146,86.22,-133.781,0,0.124,0.307,-0.22,229.634,-48.72,85.976,484.474,-0.138,-0.096,-1.131,68.049,-16.707,5.305,759.922,-1.878,0.084,1.487,-208.476,-44.451,-123.72,2099.746,8,1,1
-0.621,-0.84,-0.101,39.024,51.22,-150.61,0,-0.522,-0.296,-0.242,-1.28,83.659,-176.037,0,0.213,0.288,-0.51,277.683,-78.841,94.451,484.474,0.501,-0.307,-2.219,136.524,-149.268,3.537,759.922,-1.878,0.084,1.487,-40.488,27.317,-49.634,2099.746,34,1,1
-0.823,-0.784,-0.792,24.39,30,-97.744,0,-0.479,-0.667,-0.366,33.963,123.415,-177.805,0,0.213,0.288,-0.51,214.39,-50.427,93.049,484.474,0.732,0.359,-0.939,-10.366,36.402,-166.342,759.922,-0.151,-0.591,0.326,-28.659,40.488,36.402,2099.746,25,1,1
-1.337,-1.221,-0.525,106.463,41.159,-56.768,0,-0.479,-0.667,-0.366,77.805,164.085,-162.622,0,0.401,0.282,-1.475,-3.049,-17.5,75.122,484.474,0.732,0.359,-0.939,5.366,128.842,-74.634,759.922,-0.151,-0.591,0.326,-40.183,55.122,23.354,2099.746,54,1,1
-1.337,-1.221,-0.525,154.329,11.524,-121.585,0,-0.867,-1.079,-0.339,92.317,129.695,-157.622,0,-0.213,-1.012,-2,364.695,-422.012,70.244,484.474,0.882,0.03,-0.43,-23.841,-232.195,74.756,759.922,-0.726,-0.499,0.744,-5.793,78.476,-32.317,2099.746,73,1,1
0.084,-1.394,0.086,212.134,-19.573,-155.244,0,-0.867,-1.079,-0.339,42.317,42.317,-192.317,0,-0.213,-1.012,-2,138.659,-61.341,-25.976,484.474,0.882,0.03,-0.43,-183.415,-135.366,-97.866,759.922,-0.726,-0.499,0.744,-16.463,7.134,-4.39,2099.746,103,1,1
0.922,-0.811,0.47,109.878,-2.622,-143.659,0,-0.604,-1.772,-1.215,134.634,70,-223.659,0,-0.091,-0.218,-2.712,45.183,-12.256,-26.768,11.139,-0.102,-0.244,-0.856,-140.427,2.5,-31.037,314.289,-0.622,-0.236,0.128,14.329,38.11,21.768,1184.242,135,1,1
0.922,-0.811,0.47,-9.268,18.476,-52.683,0,0.245,-2.087,-0.836,115.732,-48.902,-102.012,0,-0.091,-0.218,-2.712,79.939,-52.744,3.293,11.139,0.39,0.074,-1.994,-84.207,-95,-70.61,314.289,-2.221,-0.055,0.558,-0.305,110.793,24.939,1184.242,6,1,1
0.009,-0.837,0.208,-0.305,22.927,-41.524,0,0.245,-2.087,-0.836,35.732,2.012,-49.451,0,0.151,-0.385,-1.637,117.317,-1.829,-4.39,11.139,0.39,0.074,-1.994,140.915,-150.61,5.122,314.289,-2.221,-0.055,0.558,-7.622,116.707,63.598,1184.242,-9,1,1
0.009,-0.837,0.208,10.061,4.451,-66.585,0,-0.14,-1.121,-0.341,39.878,-58.354,-35.732,0,-0.082,0.128,-0.547,129.146,61.22,-47.439,11.139,0.504,0.492,-1.793,-91.89,211.281,-25.427,314.289,-0.977,0.1,0.286,-49.817,-7.927,160.183,1184.242,6,1,1
-0.032,-0.036,0.209,-29.573,-1.89,-93.293,0,0.012,-0.427,-0.203,-8.537,-4.512,-19.024,0,-0.082,0.128,-0.547,14.756,47.5,-46.524,11.139,0.143,0.203,-0.945,-9.878,-31.28,0.671,314.289,-0.268,-0.095,0.038,-21.646,-30.427,86.829,1184.242,-2,1,1
-0.032,-0.036,0.209,-63.293,1.524,-104.329,0,0.012,-0.427,-0.203,-12.012,23.049,-5.122,0,0.074,-0.159,-0.5,-0.976,-1.646,-1.646,11.139,0.143,0.203,-0.945,-73.841,35.976,-31.829,314.289,-0.268,-0.095,0.038,-4.512,-19.39,26.768,1184.242,93,1,1
0.161,0.193,0.109,-70,-0.671,-73.963,0,0.037,-0.33,-0.11,-16.159,18.11,15.976,0,0.074,-0.159,-0.5,-63.537,-31.159,16.524,11.139,0.19,0.036,-0.811,-70.793,53.72,-6.951,314.289,-0.909,-0.125,0.188,7.988,-2.561,-1.037,1184.242,61,1,1
0.282,0.044,0.073,-19.146,-10.366,-62.012,0,0.037,-0.33,-0.11,-47.988,-1.341,28.232,0,-0.122,-0.359,-0.566,-51.707,-19.878,22.439,11.139,0.19,0.036,-0.811,22.5,-7.439,1.28,314.289,-0.909,-0.125,0.188,19.634,28.171,-14.939,1184.242,77,1,1
0.282,0.044,0.073,-4.817,-20,-48.78,0,-0.085,-0.659,-0.003,-30,-8.598,30.488,0,-0.262,-0.123,-0.906,-25.427,-14.756,-7.561,11.139,0.319,0.123,-1.037,44.451,3.354,15.61,314.289,-1.245,0.009,0.309,5.732,58.354,-31.951,1184.242,-5,1,1
1.097,-0.395,-0.013,31.463,-16.646,-8.476,0,-0.14,-1.175,-0.508,-91.098,-8.476,17.134,0,-0.262,-0.123,-0.906,-38.354,-25.915,-13.841,11.139,0.405,0.081,-1.398,60.793,11.585,34.39,314.289,-1.091,0.112,0.144,-24.451,70.061,-49.268,1184.242,45,1,1
1.097,-0.395,-0.013,90.854,-35.976,44.939,0,-0.14,-1.175,-0.508,-127.012,8.598,6.098,0,-0.057,-0.159,-1.454,-46.341,-35.671,-10.061,11.139,0.405,0.081,-1.398,84.512,-61.22,35.122,314.289,-1.091,0.112,0.144,-26.829,46.098,-47.5,1184.242,26,1,1
-0.916,-1.351,-0.212,-120.976,-22.256,145.732,0,-0.404,-0.862,-0.598,-13.841,-23.049,34.451,0,-0.104,0,-0.782,-10.183,8.902,-2.988,11.139,0.198,0.031,-0.932,22.622,2.744,15.427,314.289,-0.997,-0.224,0.163,10.427,-38.171,-6.768,1184.242,59,1,1
-0.397,-1.381,-0.136,-97.5,-6.829,71.524,0,-0.272,-0.509,-0.152,-9.146,8.598,19.207,0,-0.104,0,-0.782,-19.512,34.207,-3.78,11.139,-0.052,-0.045,-0.937,-12.866,-0.732,41.28,314.289,-0.861,-0.234,0.193,1.646,-45.549,-14.878,1184.242,85,1,1
-0.397,-1.381,-0.136,-30.366,-2.134,16.28,0,-0.272,-0.509,-0.152,9.329,-9.329,21.768,0,-0.137,0.019,-0.686,-28.232,25.732,-5.915,11.139,-0.052,-0.045,-0.937,-36.646,7.744,12.622,314.289,-0.861,-0.234,0.193,-0.305,-44.085,-6.768,1184.242,-81,1,1
-0.072,-1.574,-0.07,16.585,-17.256,30.183,0,-0.441,-0.746,-0.343,-65,-4.878,34.085,0,-0.137,0.019,-0.686,-17.439,7.927,-5.61,11.139,0.054,-0.081,-1.032,-12.317,-28.659,-11.524,314.289,-0.897,-0.296,0.261,-0.549,-21.22,-1.159,1184.242,6,1,1
-0.072,-1.574,-0.07,38.72,-26.707,71.585,0,-0.441,-0.746,-0.343,-76.951,21.829,31.037,0,-0.191,0.062,-0.969,-9.268,-15.549,-3.232,11.139,0.054,-0.081,-1.032,10.183,-2.134,21.098,314.289,-0.897,-0.296,0.261,-1.707,8.78,-1.951,1184.242,112,1,1
-0.308,-1.263,-0.123,73.476,-25.183,54.939,0,-0.586,-0.965,-0.597,-1.098,29.451,-5.732,0,-0.191,0.062,-0.969,-6.89,-45.305,-2.622,11.139,0.107,-0.287,-1.137,71.951,-39.207,40.366,314.289,-0.964,-0.05,0.334,-1.28,35.671,-14.39,1184.242,72,1,1
-0.147,-0.762,0.125,61.463,-0.732,-37.5,0,-0.424,-0.822,-0.379,60.244,-6.28,-27.805,0,-0.108,0.096,-1.196,-4.695,-49.024,-3.659,11.139,0.107,-0.287,-1.137,121.89,-31.22,45.793,314.289,-0.964,-0.05,0.334,0.732,52.134,-41.768,1184.242,100,1,1
-0.147,-0.762,0.125,-16.829,4.207,-25.915,0,-0.424,-0.822,-0.379,114.939,-86.402,-16.037,0,0.042,-0.008,-1.111,-0.366,-12.378,1.098,11.139,0.033,-0.045,-0.931,75.549,-1.524,8.598,314.289,-1.35,-0.145,0.251,-5.671,50.793,-22.866,1184.242,87,1,1
-0.054,-0.889,-0.019,-67.988,0.122,-4.146,0,-0.366,-0.753,-0.255,53.354,-49.512,5.061,0,0.042,-0.008,-1.111,3.72,4.695,1.463,11.139,0.118,-0.192,-0.947,5.427,35.793,-7.073,314.289,-0.956,-0.248,0.027,-13.354,27.683,17.378,1184.242,-7,1,1
-0.07,-1.049,-0.14,-29.146,-5.305,4.878,2.323,-0.366,-0.753,-0.255,-7.378,0.793,8.049,0,-0.107,-0.004,-0.978,8.963,16.037,0.366,11.139,0.118,-0.192,-0.947,-22.256,19.878,-0.61,314.289,-0.956,-0.248,0.027,-8.049,0.061,29.146,1184.242,76,1,1
-0.07,-1.049,-0.14,5.854,-2.073,5.61,2.323,-0.462,-0.849,-0.318,-28.293,30.122,-23.841,0,-0.222,0.04,-0.898,2.744,5,0.061,11.139,0.136,-0.36,-1.032,-35.061,26.768,-8.354,314.289,-0.878,-0.215,0.054,-1.707,-14.939,14.512,1184.242,80,1,1
-0.059,-1.017,-0.046,18.049,2.073,5.671,2.323,-0.357,-0.934,-0.293,14.39,6.402,-22.683,0,-0.222,0.04,-0.898,-0.854,-1.037,-0.061,11.139,0.155,-0.197,-0.933,-5.915,-11.159,-7.561,314.289,-0.878,-0.215,0.054,0.61,-16.524,-3.171,1184.242,244,1,1
-0.059,-1.017,-0.046,20.061,4.024,4.634,2.323,-0.357,-0.934,-0.293,38.415,-19.39,-2.378,0,-0.154,-0.005,-0.903,-0.915,-3.415,-0.427,11.139,0.155,-0.197,-0.933,-29.024,-8.78,-13.293,314.289,-1.035,-0.273,0.132,1.585,-7.378,5.854,1184.242,-34,1,1
-0.06,-0.984,0.072,15.732,5.183,2.134,2.323,-0.318,-0.826,-0.151,23.902,-13.72,5.244,0,-0.154,-0.005,-0.903,-0.122,-0.671,-0.976,11.139,0.215,-0.29,-0.902,-50.427,-16.89,-18.598,314.289,-0.96,-0.239,0.136,5.549,-4.817,15.305,1184.242,147,1,1
-0.06,-0.984,0.072,4.268,5.854,-0.793,2.323,-0.318,-0.826,-0.151,2.927,-2.439,1.098,0,-0.157,0.001,-0.998,0.915,-2.256,0.305,11.139,0.215,-0.29,-0.902,-73.659,-11.402,-21.585,314.289,-0.96,-0.239,0.136,8.72,-5.427,29.207,1184.242,-106,1,1
-0.107,-0.975,0.052,-8.293,6.768,-2.195,2.323,-0.355,-0.883,-0.217,-25.244,17.195,-5.183,0,-0.157,0.001,-0.998,5.976,2.317,1.585,11.139,0.226,-0.23,-1.2,-68.78,-1.098,-8.476,314.289,-1.116,-0.099,0.209,6.524,-5.976,32.073,1184.242,-65,1,1
-0.158,-0.959,-0.02,-1.524,6.098,3.659,2.323,-0.411,-0.921,-0.318,-12.378,8.476,3.11,0,-0.122,0.052,-1.036,-0.671,4.085,1.524,11.139,0.151,0.02,-1.15,36.707,24.695,-17.195,314.289,-1.116,-0.099,0.209,4.146,-5.244,16.89,1184.242,54,1,1
-0.158,-0.959,-0.02,-0.183,5.793,5.244,2.323,-0.411,-0.921,-0.318,-11.707,-1.037,17.378,0,-0.04,-0.006,-0.962,2.134,12.927,1.341,11.139,0.151,0.02,-1.15,-18.72,0.793,-10.244,314.289,-1.051,-0.038,0.206,2.256,-4.39,2.622,1184.242,183,1,1
-0.166,-1.061,0.018,-10.793,3.659,11.037,2.323,-0.404,-0.764,-0.292,-10.427,-8.354,20.61,0,-0.04,-0.006,-0.962,3.78,20.366,1.341,11.139,0.158,-0.017,-1.094,-54.634,9.268,-3.415,314.289,-1.212,-0.24,0.277,-6.585,-30.793,-1.22,1184.242,-37,1,1
-0.166,-1.061,0.018,-8.293,-5.671,20.305,2.323,-0.396,-0.761,-0.342,-34.634,25.427,-5.732,0,-0.05,-0.014,-0.885,8.537,27.317,1.707,11.139,0.158,-0.017,-1.094,-47.805,1.646,-9.939,314.289,-1.212,-0.24,0.277,-2.195,-55.549,10.183,1184.242,150,1,1
-0.202,-1.196,-0.043,13.963,-16.829,31.768,2.323,-0.396,-0.761,-0.342,-15,40.305,-25.427,0,-0.05,-0.014,-0.885,17.073,36.159,1.768,11.139,0.214,0.053,-1.104,-38.537,-3.171,-6.28,314.289,-1.259,-0.265,0.656,5.976,-84.817,47.317,1184.242,-99,1,1
-0.125,-0.943,0.026,30.244,-5.427,-17.683,2.323,-0.329,-0.89,-0.448,-23.598,49.39,-24.573,0,-0.037,-0.03,-0.983,3.659,5.122,-0.183,11.139,0.214,0.053,-1.104,-47.561,1.463,-7.927,314.289,-1.259,-0.265,0.656,-16.463,-114.024,67.256,1184.242,324,1,1
-0.125,-0.943,0.026,16.341,-2.744,-32.012,2.323,-0.329,-0.89,-0.448,-27.378,28.659,-10.549,0,-0.066,-0.009,-1.035,-0.122,2.744,-0.244,11.139,0.23,-0.015,-1.009,-45.366,14.573,-9.39,314.289,-0.513,-0.097,1.106,-19.39,-153.171,37.988,1184.242,50,1,1
-0.114,-0.841,-0.039,-10.61,-0.366,-16.585,2.323,-0.331,-0.928,-0.451,2.5,-5.854,-2.134,0,-0.066,-0.009,-1.035,-4.268,-5.854,-0.976,11.139,0.129,-0.011,-0.914,-10.244,14.329,-22.073,314.289,-0.513,-0.097,1.106,197.561,-213.476,18.537,1184.242,-3,1,1
-0.114,-0.841,-0.039,1.159,1.28,1.768,2.323,-0.331,-0.928,-0.451,23.841,-17.622,5.061,0,-0.023,0.009,-1.009,-3.72,-7.988,0.122,11.139,0.129,-0.011,-0.914,-0.244,2.927,-16.707,314.289,-0.382,0.085,0.102,93.598,-256.342,-87.805,1184.242,-133,1,1
-0.191,-0.859,0.007,14.024,5.61,7.073,2.323,-0.356,-0.832,-0.319,21.89,-7.561,7.195,0,-0.023,0.009,-1.009,0.671,-1.22,1.402,11.139,0.105,0.091,-0.972,-31.829,0.488,-14.207,314.289,-0.486,0.064,0.153,-37.805,-231.524,-71.037,1184.242,391,1,1
-0.201,-1.048,0.125,-16.402,5.793,13.232,2.323,-0.361,-0.869,-0.422,-8.049,10.549,-6.585,0,-0.054,-0.009,-0.948,3.78,-0.976,3.171,11.139,0.19,0.164,-1.068,19.39,-23.232,12.317,314.289,-1.231,-0.25,1.604,-54.207,-100.915,26.341,1184.242,12,1,1
-0.156,-1.071,0.087,10.549,2.195,5.427,2.323,-0.361,-0.869,-0.422,6.646,3.659,-7.5,0,-0.054,-0.009,-0.948,-0.549,-6.463,2.5,11.139,0.24,0.232,-1.203,34.695,1.22,9.268,314.289,-0.075,-0.069,1.268,-61.89,-202.927,-18.049,1184.242,-740,1,1
-0.133,-0.868,0.092,15.976,-7.561,2.622,2.323,-0.333,-0.856,-0.42,25.244,-11.829,-2.683,0,0.012,-0.05,-1.03,-6.341,-9.146,-1.89,0,0.186,0.108,-1.019,106.098,-11.829,-5.488,153.843,-0.075,-0.069,1.268,-72.012,-69.085,-34.146,2119.256,-808,1,1
-0.133,-0.868,0.092,-7.073,-6.89,4.573,2.323,-0.333,-0.856,-0.42,24.512,-20.671,-1.037,0,0.018,-0.023,-1.058,-5.305,-1.341,-2.134,0,0.186,0.108,-1.019,-3.78,20.61,1.951,153.843,0.078,-0.275,0.987,-46.524,90.122,16.951,2119.256,1334,1,1
-0.17,-0.962,-0.021,-35.732,-6.646,8.902,2.323,-0.336,-0.834,-0.368,13.293,-19.756,1.585,0,0.018,-0.023,-1.058,-3.72,5.366,-1.585,0,0.209,-0.081,-1.046,-23.476,-38.293,17.927,153.843,0.078,-0.275,0.987,-17.256,81.037,6.646,2119.256,2047,1,1
-0.17,-0.962,-0.021,-41.402,-5.793,12.988,2.323,-0.357,-0.863,-0.329,-4.512,-6.646,5.793,0,-0.065,0,-0.965,-1.402,8.415,-0.915,0,0.209,-0.081,-1.046,-25.366,7.866,8.232,153.843,-0.412,-0.277,0.92,-11.341,-19.329,-6.402,2119.256,1062,1,1
-0.205,-1.172,-0.105,14.695,-2.378,7.439,2.323,-0.357,-0.863,-0.329,-6.463,-4.207,7.317,0,-0.125,0.015,-0.89,-2.805,-1.768,-0.976,0,0.116,-0.021,-1.032,23.476,-24.695,1.829,153.843,-0.188,-0.333,1.019,-13.598,-23.354,-7.988,2119.256,538,1,1
-0.227,-1.042,0.036,32.317,1.22,0,2.323,-0.375,-0.885,-0.295,4.695,-7.5,4.817,0,-0.125,0.015,-0.89,-4.329,-6.28,-1.22,0,0.177,-0.048,-0.994,21.951,-26.829,-3.598,153.843,-0.188,-0.333,1.019,-24.634,-8.659,-5.244,2119.256,278,1,1
-0.227,-1.042,0.036,30.976,3.537,-5.366,2.323,-0.37,-0.849,-0.233,26.707,-16.341,4.146,0,-0.095,0.013,-0.926,-4.146,-12.439,-0.61,0,0.177,-0.048,-0.994,13.049,29.207,-0.305,153.843,-0.171,-0.362,1.036,-13.476,11.098,-1.585,2119.256,169,1,1
-0.22,-0.908,0.143,23.963,4.207,-9.573,2.323,-0.37,-0.849,-0.233,24.268,-16.463,3.049,0,-0.095,0.013,-0.926,-3.049,-13.232,-0.305,0,0.131,-0.061,-1.016,22.317,11.585,-3.902,153.843,-0.216,-0.309,1.017,-4.634,5.549,0.732,2119.256,131,1,1
-0.22,-0.908,0.143,11.463,2.378,-9.939,2.323,-0.389,-0.836,-0.224,14.024,-13.537,2.073,0,-0.05,0.012,-1.016,-1.402,-9.146,0.061,0,0.131,-0.061,-1.016,24.085,-22.561,-5,153.843,-0.216,-0.309,1.017,12.378,-1.585,2.378,2119.256,-87,1,1
-0.183,-0.943,0.067,-17.439,0.854,4.024,2.323,-0.389,-0.836,-0.224,7.439,-8.902,0.976,0,-0.042,0.006,-1.036,4.451,4.573,1.22,0,0.192,-0.067,-1.088,-10.305,11.159,-2.988,153.843,-0.208,-0.278,1.076,3.476,-1.22,2.439,2119.256,-2048,1,1
-0.17,-1.006,-0.007,-21.463,4.512,1.402,2.323,-0.401,-0.864,-0.244,-2.683,1.646,-2.683,0,-0.042,0.006,-1.036,4.512,7.927,1.159,0,0.19,-0.004,-1.099,-9.695,5.854,-3.11,153.843,-0.208,-0.278,1.076,0.549,3.537,2.805,2119.256,-1457,1,1
-0.17,-1.006,-0.007,-19.329,8.11,-0.488,2.323,-0.374,-0.86,-0.297,-32.317,17.012,-2.744,0,-0.065,0.004,-0.968,3.049,10.915,1.098,0,0.19,-0.004,-1.099,-13.232,-2.439,-0.854,153.843,-0.221,-0.301,1.01,1.037,7.256,3.232,2119.256,276,1,1
-0.183,-1.01,0.028,-14.268,7.927,-1.646,2.323,-0.374,-0.86,-0.297,-33.232,14.146,-0.366,0,-0.065,0.004,-0.968,0.793,11.402,0.976,0,0.183,0.006,-1.066,-14.695,9.146,0.244,153.843,-0.25,-0.288,0.987,1.951,1.098,1.829,2119.256,-782,1,1
-0.183,-1.01,0.028,-6.402,5.183,-1.829,2.323,-0.37,-0.855,-0.361,-31.22,11.341,1.585,0,-0.061,-0.004,-0.938,-0.427,7.134,0.671,0,0.183,0.006,-1.066,-7.134,5.305,-5,153.843,-0.25,-0.288,0.987,-3.11,-5.549,-2.195,2119.256,-776,1,1
-0.189,-0.992,0.025,2.744,1.646,-0.366,2.323,-0.37,-0.855,-0.361,-23.963,9.573,2.012,0,-0.061,-0.004,-0.938,-0.305,2.988,0.549,0,0.175,0.002,-1,9.39,-0.915,-4.817,153.843,-0.209,-0.294,1.017,-5.549,-7.012,-4.024,2119.256,-438,1,1
-0.201,-0.994,0.018,7.561,-1.159,0.915,2.323,-0.375,-0.841,-0.394,-4.146,2.256,-0.854,0,-0.038,-0.006,-0.967,0.915,-1.768,0.122,0,0.17,0.002,-1.014,7.378,-3.537,-2.561,153.843,-0.209,-0.294,1.017,-8.293,-2.866,-3.171,2119.256,1029,1,1
-0.201,-0.994,0.018,1.341,-1.28,0.244,2.323,-0.378,-0.842,-0.394,1.524,-1.28,-1.341,0,-0.026,0.003,-1.004,1.037,-3.354,-0.061,0,0.17,0.002,-1.014,7.439,-6.341,0.244,153.843,-0.198,-0.304,1.039,-3.537,2.561,0,2119.256,-9,1,1
-0.2,-1,0.007,-0.305,-0.915,-0.854,2.323,-0.378,-0.842,-0.394,5.183,-3.11,-1.585,0,-0.038,0.012,-1,0,-2.5,-0.183,0,0.177,-0.018,-1.081,-2.622,10.549,4.634,153.843,-0.212,-0.313,1.036,-5.915,3.11,0.183,2119.256,1922,1,1
-0.2,-1,0.007,0.793,-0.732,-0.671,2.323,-0.382,-0.847,-0.375,8.293,-4.573,-0.854,0,-0.038,0.012,-1,-0.061,-1.463,0.061,0,0.191,-0.026,-1.091,1.159,1.768,1.463,153.843,-0.212,-0.313,1.036,-8.354,2.622,0.061,2119.256,2047,1,1
-0.186,-0.98,0.021,2.927,0.61,-0.183,2.323,-0.377,-0.846,-0.33,11.402,-6.707,-0.183,0,-0.061,0.009,-0.972,-0.671,-0.793,0.122,0,0.191,-0.026,-1.091,-2.317,6.402,0.183,153.843,-0.219,-0.337,1.003,-6.159,1.28,-0.061,2119.256,1142,1,1
-0.174,-0.983,0.048,4.817,1.707,1.22,2.323,-0.377,-0.846,-0.33,11.646,-7.195,-0.122,0,-0.061,0.009,-0.972,-1.037,-0.366,0.183,0,0.182,-0.023,-1.035,-1.585,4.146,-1.829,153.843,-0.219,-0.337,1.003,-5.244,1.768,0.183,2119.256,-2,1,1
-0.183,-0.992,0.076,1.585,2.317,0.305,2.323,-0.366,-0.843,-0.294,4.695,-3.78,-0.427,0,-0.07,0.002,-0.956,-0.061,-0.793,0.183,0,0.194,-0.037,-1.007,4.817,-6.707,1.829,153.843,-0.223,-0.344,0.99,-3.293,0.122,-0.305,2119.256,-981,1,1
-0.183,-0.992,0.076,-2.073,1.646,-1.28,2.323,-0.366,-0.847,-0.301,-0.976,-0.366,-0.854,0,-0.063,0.003,-0.969,0.427,-0.305,0.244,0,0.196,-0.037,-1.037,2.134,-2.378,0.793,153.843,-0.219,-0.348,1.011,-1.402,-0.976,-0.915,2119.256,-567,1,1
-0.188,-0.99,0.044,-3.963,0.854,-1.768,2.323,-0.366,-0.847,-0.301,-3.841,0.793,-0.976,0,-0.054,0.009,-0.988,1.646,0.976,0.305,0,0.196,-0.037,-1.037,2.378,1.829,-0.793,153.843,-0.209,-0.343,1.02,-0.061,0.122,-0.122,2119.256,-236,1,1
-0.188,-0.988,0.003,-2.927,0.976,-1.341,2.323,-0.375,-0.854,-0.323,-8.049,2.5,-0.915,0,-0.054,0.009,-0.988,1.402,1.585,0.427,0,0.183,-0.041,-1.07,-1.098,4.146,-0.305,153.843,-0.209,-0.343,1.02,0.488,0.793,0.366,2119.256,684,1,1
-0.188,-1,0.021,0.061,3.232,-0.793,2.323,-0.379,-0.853,-0.344,-8.72,2.378,0.488,0,-0.045,0.01,-0.988,0.549,1.829,0.488,0,0.18,-0.022,-1.06,-1.28,2.988,0.366,153.843,-0.211,-0.335,1.012,3.841,2.012,2.195,2119.256,273,1,1
-0.188,-1,0.021,0.183,3.171,-1.098,2.323,-0.376,-0.842,-0.356,-8.232,2.195,0.732,0,-0.043,0.002,-0.975,0.244,2.073,0.549,0,0.18,-0.022,-1.06,-4.024,4.451,0.122,153.843,-0.224,-0.319,1.01,3.476,1.341,1.768,2119.256,402,1,1
-0.186,-0.997,0.046,0.061,2.073,-1.28,2.323,-0.376,-0.842,-0.356,-6.646,1.646,0.366,0,-0.043,0.002,-0.975,0.366,1.768,0.427,0,0.18,0.013,-1.038,-5.305,3.171,1.037,153.843,-0.222,-0.33,1.007,-1.159,0.915,0.061,2119.256,256,1,1
-0.186,-0.997,0.046,1.463,1.037,-1.646,2.323,-0.372,-0.839,-0.366,-4.085,1.037,-0.427,0,-0.045,0.001,-0.969,0.793,0.061,0.244,0,0.193,-0.007,-1.036,0.732,-2.317,-1.037,153.843,-0.222,-0.33,1.007,-0.732,0.244,0.061,2119.256,-837,1,1
-0.174,-0.982,0.041,1.341,0.305,-2.012,2.323,-0.369,-0.844,-0.363,0.366,-0.305,-1.28,0,-0.048,0.003,-0.98,0.549,-0.488,0.244,0,0.193,-0.007,-1.036,-1.098,0.732,1.22,153.843,-0.219,-0.332,1.012,-1.28,-0.061,-0.244,2119.256,12,1,1
-0.172,-0.984,0.028,1.159,-0.244,-0.427,2.323,-0.369,-0.844,-0.363,2.622,-1.463,-1.22,0,-0.048,0.003,-0.98,0.305,-1.098,0.183,0,0.195,-0.023,-1.053,5.61,-3.049,-0.305,153.843,-0.219,-0.332,1.012,-2.195,0.488,-0.488,2119.256,43,1,1
-0.172,-0.984,0.028,1.829,-0.122,0.305,2.323,-0.371,-0.85,-0.356,4.085,-2.5,-0.793,0,-0.049,0.006,-0.985,0.183,-1.524,0.061,0,0.184,-0.023,-1.056,4.451,4.024,0.061,153.843,-0.219,-0.338,1.013,-1.768,0.671,-0.244,2119.256,129,1,1
-0.184,-1.012,0.029,2.012,0.549,0.244,2.323,-0.371,-0.85,-0.356,5.488,-3.293,-0.549,0,-0.049,0.006,-0.985,0.244,-1.341,0.061,0,0.184,-0.023,-1.056,2.073,0.244,-0.305,153.843,-0.218,-0.345,1.012,-2.012,0.305,-0.366,2119.256,87,1,1
-0.188,-1.074,0.028,-1.22,3.415,-6.402,2.323,-0.369,-0.843,-0.334,4.146,-3.598,0.305,0,-0.052,0.008,-0.976,-0.061,0.183,0.183,0,0.189,-0.028,-1.054,-0.305,4.329,0.732,153.843,-0.217,-0.35,1.003,-2.073,0.732,0.061,2119.256,116,1,1
-0.188,-1.074,0.028,-4.329,5.488,-13.537,2.323,-0.367,-0.836,-0.321,0.61,-1.585,0.183,0,-0.056,0.009,-0.968,-0.366,1.402,0.305,0,0.185,-0.031,-1.039,-0.366,0.183,1.341,153.843,-0.217,-0.35,1.003,-1.646,1.098,0.61,2119.256,388,1,1
-0.15,-1.031,0.032,-7.805,6.524,-19.146,2.323,-0.372,-0.849,-0.334,-2.744,0.122,-0.427,0,-0.052,0.007,-0.979,-0.366,1.098,0.305,0,0.185,-0.031,-1.039,1.646,-2.256,3.598,153.843,-0.223,-0.351,1,-0.854,0.854,0.488,2119.256,117,1,1
-0.15,-1.031,0.032,-9.146,6.585,-20.366,2.323,-0.372,-0.849,-0.334,-4.512,1.037,-0.793,0,-0.052,0.007,-0.979,0.549,0.61,0.366,0,0.184,-0.035,-1.025,1.829,-3.415,1.646,153.843,-0.223,-0.351,1,0.366,-0.061,0.122,2119.256,-204,1,1
-0.108,-0.915,0.033,-3.415,3.659,-11.768,2.323,-0.375,-0.855,-0.355,-2.988,0.793,-1.159,0,-0.045,0.006,-0.986,1.524,0.244,0.427,0,0.184,-0.035,-1.025,1.707,-0.854,0.061,153.843,-0.219,-0.341,1.009,1.646,0.061,0.549,2119.256,-92,1,1
-0.104,-0.875,0.034,0.061,2.134,-4.634,2.323,-0.375,-0.855,-0.355,-1.22,0.427,-1.402,0,-0.045,0.006,-0.986,1.768,0.305,0.427,0,0.189,-0.021,-1.043,-0.549,0.671,0.976,153.843,-0.219,-0.341,1.009,1.159,0.671,0.488,2119.256,-52,1,1
-0.104,-0.875,0.034,1.585,0.488,2.988,2.323,-0.369,-0.845,-0.35,-1.22,-0.61,-0.183,0,-0.045,0.009,-0.973,0.732,0.244,0.305,0,0.193,-0.021,-1.064,-0.793,-0.671,-2.561,156.167,-0.218,-0.34,1.011,0.671,0.61,0.671,2500.749,84,1,1
-0.116,-0.964,0.033,4.329,-1.829,11.524,2.323,-0.366,-0.841,-0.343,-0.122,-1.159,0.061,0,-0.046,0.006,-0.977,-0.244,0.366,0.305,0,0.193,-0.021,-1.064,-2.012,2.683,-0.793,156.167,-0.225,-0.337,1.007,0.793,0.976,0.915,2500.749,215,1,1
